File: NeXLParticle/Zeppelin/Standards/Ag std.msa
#FORMAT      : EMSA/MAS Spectral Data File
#VERSION     : 1.0
#TITLE       : Ag std
#DATE        : 15-OCT-2018
#TIME        : 10:33
#OWNER       : Unknown
#NPOINTS     : 4096
#NCOLUMNS    : 1
#XUNITS      : eV
#YUNITS      : counts
#DATATYPE    : Y
#XPERCHAN    : 9.99856
#OFFSET      : 1.63032
#BEAMKV      : 20
#SIGNALTYPE  : EDS
#ELEVANGLE   : 35
#AZIMANGLE   : 0
#LIVETIME    : 921.028
#REALTIME    : 1282.59
#PROBECUR    : 0.98647
#TDEADLYR    : 0
#TACTLYR     : 0.045
#TALWIND     : 0.003
#CHOFFSET    : 0.0
#XLABEL      : Energy (eV)
#YLABEL      : Counts
#EDSDET      : SDUTW
##SPECIMEN   : Ag std
##D2STDCMP   : Ag,(Ag:100.0),5.0
##DET_HASH   : 97086dfe-e5c2-9c77-3984-1d0b14bbbf41
##CALIB_HASH : 1a36e884-c26d-3547-51b1-d0bb2efdf95a
##WORKING    : 17.0 mm
##SAMPLE     : <BulkSample id="1">\n<mOrientation id="2">\n<double>0.0</double>\n<double>0.0</double>\n<double>-1.0</double>\n</mOrientation>\n</BulkSample>
#SPECTRUM    :
114171,
23739,
1964,
378,
173,
395,
1690,
7031,
28272,
54604,
45093,
27318,
19282,
15042,
10720,
10848,
18121,
29731,
26089,
15786,
12748,
13292,
17060,
17953,
14978,
14004,
14773,
15997,
17481,
19185,
20563,
21035,
21534,
22455,
23716,
25223,
25946,
27230,
29014,
31639,
39226,
50505,
50036,
40080,
35381,
36326,
40705,
44524,
45391,
47297,
47594,
43545,
39751,
38946,
39275,
39493,
39895,
42359,
43804,
43514,
43334,
42113,
40819,
40333,
40544,
40829,
40986,
41851,
42494,
42305,
42855,
45072,
49403,
54730,
56126,
59905,
69780,
74866,
64981,
52145,
45008,
44263,
44593,
44915,
45977,
50935,
68722,
95380,
107580,
91422,
66155,
52692,
53228,
60363,
65669,
72539,
114472,
296819,
744040,
1284602,
1382614,
932616,
451123,
309888,
451206,
611078,
575327,
400417,
249269,
167319,
144418,
158617,
161649,
125863,
79496,
53356,
52455,
60287,
58258,
44914,
30435,
23934,
22873,
26303,
30426,
33075,
30813,
25813,
21884,
20412,
20178,
21104,
21094,
20248,
19755,
19330,
19039,
19142,
19332,
19795,
20138,
20556,
20230,
19998,
19812,
19504,
19544,
19658,
19487,
19499,
19653,
19855,
19546,
19287,
19156,
19428,
19293,
18959,
19242,
19069,
19252,
19093,
19215,
19061,
18977,
18971,
18860,
19079,
18962,
18822,
18576,
18763,
18457,
18690,
18507,
18422,
18492,
18734,
18433,
18538,
18768,
18613,
18288,
18428,
17989,
18033,
18028,
18302,
17710,
17866,
17462,
17541,
17410,
17447,
17440,
17763,
17711,
18331,
18815,
19380,
19370,
18650,
18090,
17950,
18395,
18449,
18188,
17749,
17648,
17136,
17355,
17446,
17815,
17885,
17541,
17032,
16535,
16257,
16153,
15877,
15491,
15404,
15297,
15319,
15246,
15089,
14783,
15037,
14737,
14875,
14701,
14653,
14582,
14457,
14329,
14399,
14185,
14301,
14027,
13990,
13740,
14019,
13763,
13576,
13842,
13576,
13721,
13419,
13714,
13475,
13507,
13190,
13267,
12978,
13163,
12917,
12922,
12938,
12595,
12462,
12562,
12507,
12338,
12431,
12521,
12317,
12340,
12141,
12316,
12257,
12114,
12056,
11917,
11707,
11732,
11792,
11656,
11472,
11471,
11460,
11171,
11306,
11223,
11040,
11211,
10956,
10875,
11041,
10880,
10746,
10758,
10891,
10638,
10591,
10645,
10301,
10605,
10277,
10315,
10281,
10047,
10141,
10042,
10078,
10123,
10033,
9588,
9797,
10015,
9685,
9834,
9592,
9554,
9481,
9545,
9443,
9439,
9115,
9208,
9212,
9169,
9118,
8893,
9008,
8763,
8925,
8850,
8790,
8819,
8898,
8820,
9248,
9172,
9364,
9319,
8948,
8551,
8543,
8280,
8159,
8184,
8189,
7861,
8086,
7825,
7852,
7912,
7683,
7818,
7798,
7827,
7847,
7854,
7708,
7546,
7478,
7300,
7396,
7208,
7187,
7120,
7213,
7005,
6906,
6975,
6785,
6856,
6738,
6750,
6812,
6634,
6790,
6576,
6496,
6486,
6492,
6281,
6405,
6195,
6180,
6241,
6173,
6178,
6115,
5999,
6029,
6075,
5908,
5828,
5867,
5948,
5822,
5847,
6048,
6178,
6195,
6027,
5823,
5812,
5776,
5545,
5440,
5486,
5225,
5332,
5203,
5058,
5131,
4968,
5022,
4960,
4938,
4927,
4958,
4774,
4695,
4840,
4839,
4800,
4861,
4844,
4739,
4682,
4548,
4445,
4465,
4522,
4370,
4300,
4210,
4208,
4224,
4096,
4124,
4139,
4046,
4005,
4015,
4015,
3939,
3883,
3853,
3877,
3837,
3713,
3665,
3670,
3720,
3617,
3598,
3673,
3584,
3651,
3453,
3453,
3371,
3399,
3349,
3310,
3293,
3333,
3241,
3229,
3080,
3189,
3141,
3137,
3044,
3096,
2950,
3000,
2895,
2862,
2945,
2838,
2971,
2807,
2810,
2760,
2722,
2773,
2587,
2677,
2633,
2570,
2604,
2549,
2610,
2536,
2492,
2495,
2552,
2401,
2375,
2383,
2355,
2274,
2274,
2250,
2201,
2270,
2158,
2100,
2135,
2082,
2023,
2151,
2079,
1970,
1978,
1971,
1947,
1894,
1883,
1864,
1828,
1852,
1847,
1840,
1814,
1803,
1706,
1696,
1676,
1628,
1683,
1620,
1580,
1571,
1493,
1519,
1558,
1493,
1503,
1485,
1457,
1426,
1396,
1404,
1366,
1401,
1361,
1367,
1263,
1334,
1232,
1299,
1218,
1216,
1194,
1206,
1215,
1179,
1181,
1181,
1078,
1111,
1097,
1021,
1060,
1020,
1001,
1006,
1028,
955,
916,
967,
928,
933,
902,
867,
871,
880,
851,
855,
799,
817,
827,
735,
753,
690,
716,
734,
697,
720,
705,
717,
671,
653,
653,
677,
607,
584,
557,
609,
562,
572,
561,
537,
575,
509,
499,
532,
489,
464,
466,
468,
458,
430,
452,
418,
402,
393,
405,
418,
401,
382,
322,
347,
331,
322,
321,
306,
306,
302,
297,
299,
256,
254,
248,
253,
247,
245,
225,
209,
224,
202,
174,
181,
184,
188,
178,
166,
180,
148,
138,
168,
150,
104,
112,
112,
114,
94,
97,
97,
104,
72,
82,
62,
60,
55,
39,
44,
46,
42,
25,
20,
22,
19,
14,
10,
6,
9,
9,
10,
6,
3,
3,
7,
6,
6,
7,
7,
5,
4,
4,
4,
3,
7,
4,
3,
5,
5,
7,
5,
2,
5,
10,
5,
6,
4,
2,
5,
3,
6,
2,
8,
7,
3,
3,
2,
0,
9,
7,
8,
5,
3,
8,
3,
1,
1,
5,
6,
4,
2,
1,
3,
4,
4,
2,
3,
1,
2,
3,
5,
2,
3,
4,
4,
2,
1,
1,
3,
2,
2,
1,
3,
0,
6,
0,
1,
0,
3,
2,
4,
0,
2,
1,
1,
1,
3,
3,
1,
0,
1,
0,
0,
2,
1,
1,
2,
3,
0,
0,
0,
1,
1,
3,
2,
2,
1,
1,
0,
2,
3,
1,
1,
2,
0,
0,
0,
0,
1,
0,
1,
4,
2,
1,
1,
0,
1,
1,
2,
0,
0,
2,
3,
0,
0,
0,
1,
2,
0,
1,
0,
2,
1,
0,
0,
0,
2,
0,
0,
1,
1,
0,
0,
1,
1,
1,
0,
0,
2,
0,
1,
1,
1,
1,
1,
2,
0,
2,
0,
0,
1,
0,
1,
0,
2,
0,
2,
1,
0,
2,
0,
0,
0,
1,
0,
2,
0,
0,
0,
0,
0,
0,
1,
0,
0,
2,
0,
1,
0,
0,
0,
0,
0,
0,
0,
0,
0,
0,
0,
0,
2,
0,
1,
1,
2,
0,
1,
0,
0,
1,
0,
1,
0,
2,
1,
0,
0,
1,
0,
1,
0,
0,
0,
0,
0,
0,
1,
0,
0,
0,
0,
0,
1,
0,
0,
0,
1,
0,
1,
0,
0,
1,
0,
0,
0,
1,
0,
1,
1,
0,
0,
0,
0,
0,
0,
0,
0,
0,
0,
0,
0,
0,
0,
0,
0,
0,
0,
0,
0,
0,
0,
0,
0,
0,
0,
0,
0,
0,
0,
0,
1,
0,
0,
0,
0,
0,
0,
0,
0,
0,
0,
0,
0,
0,
0,
0,
0,
0,
0,
0,
0,
0,
0,
0,
0,
0,
0,
0,
0,
0,
0,
0,
0,
0,
0,
0,
1,
0,
0,
0,
0,
0,
0,
0,
0,
0,
0,
0,
0,
0,
0,
0,
0,
0,
0,
0,
0,
0,
0,
0,
0,
0,
0,
0,
0,
0,
0,
0,
0,
0,
0,
0,
0,
0,
0,
0,
0,
0,
0,
0,
0,
0,
0,
0,
0,
0,
0,
0,
0,
0,
0,
0,
0,
0,
0,
0,
0,
0,
0,
0,
0,
0,
0,
0,
0,
0,
0,
0,
0,
0,
0,
0,
0,
0,
0,
0,
0,
0,
0,
0,
0,
0,
0,
0,
0,
0,
0,
0,
0,
0,
0,
0,
0,
0,
0,
0,
0,
0,
0,
0,
0,
0,
0,
0,
0,
0,
0,
0,
0,
0,
0,
0,
0,
0,
0,
0,
0,
0,
0,
0,
0,
0,
0,
0,
0,
0,
0,
0,
0,
0,
0,
0,
0,
0,
0,
0,
0,
0,
0,
0,
0,
0,
0,
0,
0,
0,
0,
0,
0,
0,
0,
0,
0,
0,
0,
0,
0,
0,
0,
0,
0,
0,
0,
0,
0,
0,
0,
0,
0,
0,
0,
0,
0,
0,
0,
0,
0,
0,
0,
0,
0,
0,
0,
0,
0,
0,
0,
0,
0,
0,
0,
0,
0,
0,
0,
0,
0,
0,
0,
0,
0,
0,
0,
0,
0,
0,
0,
0,
0,
1,
0,
0,
0,
0,
0,
0,
0,
0,
0,
0,
0,
0,
0,
0,
0,
0,
0,
0,
0,
0,
0,
0,
0,
0,
0,
0,
0,
0,
0,
0,
0,
0,
0,
0,
0,
0,
0,
0,
0,
0,
0,
0,
0,
0,
0,
0,
0,
0,
0,
0,
0,
0,
0,
0,
0,
0,
0,
0,
0,
0,
0,
0,
0,
0,
0,
0,
0,
0,
0,
0,
0,
0,
0,
0,
0,
0,
0,
0,
0,
0,
0,
0,
0,
0,
0,
0,
0,
0,
0,
0,
0,
0,
0,
0,
0,
0,
0,
0,
0,
0,
0,
0,
0,
0,
0,
0,
0,
0,
0,
0,
0,
0,
0,
0,
0,
0,
0,
0,
0,
0,
0,
0,
0,
0,
0,
0,
0,
0,
0,
0,
0,
0,
0,
0,
0,
0,
0,
0,
0,
0,
0,
0,
0,
0,
0,
0,
0,
0,
0,
0,
0,
0,
#ENDOFDATA   :