File: NeXLParticle/Zeppelin/Standards/Ba std.msa
#FORMAT      : EMSA/MAS Spectral Data File
#VERSION     : 1.0
#TITLE       : BaF2 std
#DATE        : 15-OCT-2018
#TIME        : 02:07
#OWNER       : Unknown
#NPOINTS     : 4096
#NCOLUMNS    : 1
#XUNITS      : eV
#YUNITS      : counts
#DATATYPE    : Y
#XPERCHAN    : 9.99856
#OFFSET      : 1.63032
#BEAMKV      : 20
#SIGNALTYPE  : EDS
#ELEVANGLE   : 35
#AZIMANGLE   : 0
#LIVETIME    : 1171.3
#REALTIME    : 1545.87
#PROBECUR    : 0.98986
#TDEADLYR    : 0
#TACTLYR     : 0.045
#TALWIND     : 0.003
#CHOFFSET    : 0.0
#XLABEL      : Energy (eV)
#YLABEL      : Counts
#EDSDET      : SDUTW
##SPECIMEN   : BaF2 std
##D2STDCMP   : BaF2,(F:21.672),(Ba:78.328),5.0
##DET_HASH   : 97086dfe-e5c2-9c77-3984-1d0b14bbbf41
##CALIB_HASH : 1a36e884-c26d-3547-51b1-d0bb2efdf95a
##WORKING    : 17.0 mm
##SAMPLE     : <BulkSample id="1">\n<mOrientation id="2">\n<double>0.0</double>\n<double>0.0</double>\n<double>-1.0</double>\n</mOrientation>\n</BulkSample>
#SPECTRUM    :
146781,
30131,
2468,
442,
186,
455,
2025,
8204,
29176,
48776,
28305,
16891,
18780,
20964,
23923,
29479,
39375,
55704,
79653,
147438,
219511,
381519,
831800,
770875,
260660,
86398,
73999,
50823,
28483,
21229,
21067,
25564,
33877,
35356,
33989,
33461,
29196,
25848,
23966,
23523,
24159,
25168,
26378,
26944,
27394,
28176,
28812,
29093,
30439,
32450,
33382,
32376,
31241,
31376,
31559,
32602,
33865,
35625,
37665,
38667,
39007,
38330,
37066,
35994,
35955,
35973,
36317,
36630,
36891,
37230,
37891,
38174,
38633,
38568,
39077,
39148,
39349,
39579,
39745,
39292,
39830,
39846,
39949,
40184,
40249,
40429,
41328,
42323,
43202,
43914,
45691,
46333,
44288,
41603,
40657,
40255,
39631,
39470,
39647,
39872,
39904,
40419,
40339,
41431,
40880,
40019,
39399,
39065,
38792,
38434,
38222,
38047,
38305,
38162,
37717,
37224,
37372,
37133,
36364,
36392,
36321,
36106,
36114,
35726,
35783,
35638,
35212,
35334,
36694,
39910,
47393,
57636,
63185,
58254,
48841,
40345,
35944,
34666,
33472,
33785,
34094,
35156,
37486,
42340,
52915,
85818,
185720,
394893,
652995,
780805,
657700,
396988,
183758,
78143,
42892,
35687,
36890,
50231,
92652,
182962,
302027,
378413,
359396,
271413,
184483,
123716,
84531,
59427,
49668,
59027,
88649,
127146,
147332,
133054,
94100,
57734,
35556,
26651,
24611,
24438,
25431,
29479,
38407,
51738,
63103,
63545,
52506,
38273,
27385,
22906,
23827,
27233,
32310,
36022,
35435,
31408,
26043,
22984,
21608,
21213,
20503,
19207,
18391,
17419,
16829,
16812,
16917,
16857,
16844,
16967,
17105,
17418,
18348,
19082,
18772,
18156,
17611,
16918,
16321,
16334,
15982,
16048,
15903,
15960,
15858,
15810,
15809,
15717,
15672,
15313,
15378,
15446,
15366,
15402,
15600,
15496,
15213,
15111,
15007,
14843,
14881,
14832,
14550,
14639,
14339,
14470,
14607,
14709,
14407,
14550,
14584,
14352,
14060,
14090,
13901,
14105,
13637,
13758,
13674,
13458,
13509,
13689,
13588,
13495,
13444,
13052,
13307,
12860,
12972,
13096,
12716,
12731,
12804,
12711,
12749,
12703,
12717,
12616,
12398,
12242,
12374,
12236,
12025,
12047,
12189,
12013,
12032,
11911,
11821,
11826,
11633,
11662,
11552,
11574,
11589,
11568,
11619,
11597,
11510,
11477,
11452,
11335,
11119,
10907,
10939,
10693,
10829,
10849,
10916,
10763,
11048,
10932,
10807,
10715,
10450,
10413,
10189,
10141,
10190,
10289,
10123,
10319,
10122,
9932,
9918,
9860,
9551,
9585,
9437,
9381,
9347,
9361,
9145,
9370,
9384,
9234,
9193,
8979,
8947,
8813,
8899,
8719,
8764,
8689,
8633,
8756,
8532,
8360,
8418,
8679,
8756,
8592,
8472,
8495,
8127,
8136,
8135,
8041,
8026,
7946,
7771,
7660,
7598,
7662,
7569,
7560,
7431,
7393,
7413,
7314,
7365,
7268,
7108,
7186,
7146,
7190,
7049,
6927,
6933,
6789,
6786,
6593,
6735,
6668,
6548,
6582,
6466,
6429,
6558,
6336,
6343,
6316,
6326,
6255,
6297,
5969,
6094,
5992,
5953,
5967,
5807,
5862,
5769,
5798,
5775,
5762,
5694,
5649,
5764,
5539,
5434,
5346,
5312,
5338,
5186,
5387,
5234,
5131,
5255,
5157,
5220,
5127,
5116,
4991,
4980,
4924,
4871,
4777,
4819,
4808,
4783,
4472,
4632,
4501,
4547,
4533,
4365,
4312,
4226,
4355,
4258,
4248,
4133,
4043,
4106,
4050,
4015,
4131,
3928,
3959,
4001,
3829,
3870,
3837,
3701,
3726,
3746,
3609,
3638,
3621,
3438,
3565,
3428,
3482,
3385,
3411,
3349,
3360,
3417,
3327,
3294,
3243,
3214,
3112,
3133,
3130,
3004,
3071,
2983,
2903,
2934,
2985,
2943,
2842,
2917,
2821,
2805,
2710,
2685,
2632,
2585,
2696,
2611,
2583,
2503,
2535,
2460,
2407,
2366,
2361,
2386,
2403,
2277,
2328,
2276,
2189,
2208,
2164,
2154,
2146,
2061,
2087,
2037,
2012,
2040,
1926,
2009,
1949,
1903,
1898,
1817,
1863,
1822,
1853,
1852,
1690,
1797,
1716,
1679,
1598,
1652,
1711,
1562,
1540,
1610,
1505,
1493,
1552,
1575,
1525,
1461,
1437,
1463,
1372,
1368,
1309,
1291,
1273,
1278,
1342,
1220,
1287,
1227,
1179,
1144,
1212,
1151,
1157,
1082,
1153,
1061,
1086,
1046,
1058,
1023,
984,
978,
998,
952,
1014,
949,
917,
887,
880,
909,
848,
811,
881,
780,
751,
811,
818,
765,
714,
708,
740,
704,
679,
738,
659,
642,
616,
603,
674,
607,
567,
570,
613,
542,
519,
536,
501,
516,
518,
463,
464,
460,
440,
443,
457,
420,
388,
382,
394,
384,
380,
384,
361,
321,
352,
306,
326,
277,
320,
276,
279,
246,
238,
235,
250,
221,
207,
203,
225,
185,
202,
166,
187,
155,
155,
152,
141,
127,
111,
124,
102,
107,
95,
87,
91,
71,
64,
58,
49,
40,
34,
27,
37,
31,
30,
24,
20,
19,
8,
10,
9,
11,
3,
14,
6,
3,
8,
3,
7,
4,
8,
11,
5,
10,
5,
6,
7,
8,
4,
3,
5,
6,
10,
7,
6,
0,
8,
1,
8,
4,
3,
7,
6,
3,
9,
6,
2,
3,
7,
5,
8,
4,
3,
6,
3,
3,
4,
3,
2,
4,
6,
1,
3,
3,
4,
2,
1,
5,
1,
5,
6,
1,
2,
7,
4,
4,
2,
4,
2,
1,
2,
3,
3,
4,
1,
4,
2,
4,
4,
1,
3,
2,
3,
2,
1,
2,
1,
3,
0,
2,
3,
1,
2,
1,
3,
2,
5,
2,
3,
1,
5,
5,
3,
1,
3,
1,
2,
1,
1,
1,
0,
2,
1,
2,
1,
0,
3,
1,
1,
0,
0,
2,
2,
0,
2,
3,
1,
3,
0,
1,
0,
0,
0,
2,
1,
0,
2,
0,
1,
1,
2,
0,
1,
0,
0,
0,
1,
1,
1,
1,
1,
0,
1,
0,
2,
1,
2,
1,
0,
2,
0,
0,
1,
0,
1,
1,
0,
0,
1,
0,
1,
0,
2,
0,
1,
1,
1,
1,
1,
0,
0,
0,
1,
2,
1,
0,
0,
1,
0,
0,
0,
1,
2,
0,
0,
0,
0,
0,
0,
0,
0,
1,
0,
0,
0,
1,
0,
0,
0,
1,
1,
0,
0,
0,
0,
0,
0,
0,
0,
0,
0,
0,
0,
0,
1,
0,
2,
0,
0,
1,
0,
0,
2,
0,
0,
1,
0,
0,
0,
0,
0,
0,
0,
0,
0,
0,
0,
0,
0,
0,
0,
0,
0,
1,
0,
0,
0,
0,
0,
0,
0,
0,
0,
0,
1,
0,
0,
0,
0,
0,
0,
1,
0,
0,
0,
0,
0,
0,
0,
0,
0,
0,
0,
0,
0,
0,
0,
1,
0,
0,
0,
0,
1,
0,
1,
0,
0,
0,
0,
0,
0,
0,
0,
0,
0,
0,
0,
0,
0,
0,
1,
0,
0,
0,
0,
0,
0,
0,
1,
0,
0,
0,
0,
0,
0,
0,
0,
0,
0,
0,
0,
0,
0,
0,
0,
0,
0,
0,
0,
0,
0,
0,
0,
0,
0,
0,
0,
0,
0,
0,
0,
0,
0,
0,
0,
0,
0,
0,
0,
0,
0,
0,
0,
0,
0,
0,
0,
0,
0,
0,
0,
0,
0,
0,
0,
0,
0,
0,
0,
0,
0,
0,
0,
0,
0,
0,
0,
0,
0,
0,
0,
0,
0,
0,
0,
0,
0,
0,
0,
0,
0,
0,
0,
0,
0,
0,
0,
0,
0,
0,
0,
0,
0,
0,
0,
0,
0,
0,
0,
0,
0,
0,
0,
0,
0,
0,
0,
1,
0,
0,
0,
0,
0,
0,
0,
0,
0,
0,
0,
0,
0,
0,
0,
0,
0,
0,
0,
0,
0,
0,
0,
0,
0,
0,
0,
0,
0,
0,
0,
0,
0,
0,
0,
0,
0,
0,
0,
0,
0,
0,
0,
0,
0,
0,
0,
0,
0,
0,
0,
0,
0,
0,
0,
0,
0,
0,
0,
0,
0,
0,
0,
0,
0,
0,
0,
0,
0,
0,
0,
0,
0,
0,
0,
0,
0,
0,
0,
0,
0,
0,
0,
0,
0,
0,
0,
0,
0,
0,
0,
0,
0,
0,
0,
0,
0,
0,
0,
0,
0,
0,
0,
0,
0,
0,
0,
0,
0,
0,
0,
0,
0,
0,
0,
0,
0,
0,
0,
0,
0,
0,
0,
0,
0,
0,
0,
0,
0,
0,
0,
0,
0,
0,
0,
0,
0,
0,
0,
0,
0,
0,
0,
0,
0,
0,
0,
0,
0,
0,
0,
0,
0,
0,
0,
0,
0,
0,
0,
0,
0,
0,
0,
0,
0,
0,
0,
0,
0,
0,
0,
0,
0,
0,
0,
0,
0,
0,
0,
0,
0,
0,
0,
0,
0,
0,
0,
0,
0,
0,
0,
0,
0,
0,
0,
0,
0,
0,
0,
0,
0,
0,
0,
0,
0,
0,
0,
0,
0,
0,
0,
0,
0,
0,
0,
0,
0,
0,
0,
0,
0,
0,
0,
0,
0,
0,
0,
0,
0,
0,
0,
0,
0,
0,
0,
0,
0,
0,
0,
0,
0,
0,
0,
0,
0,
0,
0,
0,
0,
0,
0,
0,
0,
0,
0,
0,
0,
0,
0,
0,
0,
0,
0,
0,
0,
0,
0,
0,
0,
0,
0,
0,
0,
#ENDOFDATA   :