File: NeXLParticle/Zeppelin/Standards/Bi std.msa
#FORMAT      : EMSA/MAS Spectral Data File
#VERSION     : 1.0
#TITLE       : Bi std
#DATE        : 15-OCT-2018
#TIME        : 02:01
#OWNER       : Unknown
#NPOINTS     : 4096
#NCOLUMNS    : 1
#XUNITS      : eV
#YUNITS      : counts
#DATATYPE    : Y
#XPERCHAN    : 9.99856
#OFFSET      : 1.63032
#BEAMKV      : 20
#SIGNALTYPE  : EDS
#ELEVANGLE   : 35
#AZIMANGLE   : 0
#LIVETIME    : 1132
#REALTIME    : 1671.82
#PROBECUR    : 0.98967
#TDEADLYR    : 0
#TACTLYR     : 0.045
#TALWIND     : 0.003
#CHOFFSET    : 0.0
#XLABEL      : Energy (eV)
#YLABEL      : Counts
#EDSDET      : SDUTW
##SPECIMEN   : Bi std
##D2STDCMP   : Bi,(Bi:100.0),5.0
##DET_HASH   : 97086dfe-e5c2-9c77-3984-1d0b14bbbf41
##CALIB_HASH : 1a36e884-c26d-3547-51b1-d0bb2efdf95a
##WORKING    : 17.0 mm
##SAMPLE     : <BulkSample id="1">\n<mOrientation id="2">\n<double>0.0</double>\n<double>0.0</double>\n<double>-1.0</double>\n</mOrientation>\n</BulkSample>
#SPECTRUM    :
141901,
30845,
2902,
527,
319,
1093,
4055,
12721,
30439,
43202,
25926,
16528,
16624,
16449,
17323,
19894,
25700,
31818,
29294,
25576,
27521,
35733,
56541,
65510,
49668,
46289,
54952,
50774,
43651,
41752,
42310,
43963,
46227,
48902,
50240,
51185,
51474,
52727,
53996,
55854,
57441,
58777,
59183,
60527,
61909,
63281,
64317,
66069,
68516,
71620,
73244,
70302,
68216,
67052,
67146,
68292,
69224,
72613,
75672,
77434,
82498,
98864,
131199,
154768,
139548,
104947,
83415,
78055,
75591,
73378,
72989,
74821,
77105,
84174,
94719,
99976,
101522,
124079,
246960,
652656,
1340604,
1723369,
1445983,
1152263,
1139142,
960726,
537748,
216227,
94583,
72466,
85099,
99147,
92441,
69086,
49470,
40361,
37491,
36918,
37717,
39151,
41344,
41780,
41530,
42084,
45907,
51905,
54455,
54262,
51371,
46780,
42428,
39688,
37945,
37214,
36794,
36368,
36673,
36880,
37104,
37159,
37145,
37801,
38224,
38359,
37449,
36842,
36090,
36503,
36779,
37618,
38000,
37392,
36876,
36584,
36099,
35900,
35649,
35631,
35144,
35799,
35910,
35712,
35510,
35714,
36132,
36015,
35798,
35640,
35555,
35707,
36154,
35454,
35598,
35653,
35595,
35064,
35495,
35547,
35616,
35882,
36436,
37368,
37977,
38062,
38012,
38392,
37826,
37243,
36157,
35584,
35141,
34493,
34295,
34292,
33791,
33770,
33749,
33921,
34438,
35241,
36343,
36279,
35540,
33796,
32969,
32482,
32617,
32222,
32116,
32098,
31854,
31739,
31680,
31693,
31629,
31705,
31376,
31623,
31890,
31475,
31137,
30978,
30754,
30181,
30101,
30438,
29961,
29886,
29736,
30165,
31332,
33088,
34764,
36350,
36421,
34227,
31895,
30381,
28917,
28521,
28409,
28274,
28054,
28063,
28000,
27912,
27531,
27467,
27585,
27672,
27146,
27345,
27154,
27400,
27382,
27549,
27557,
27153,
26528,
26126,
26127,
25961,
26002,
25589,
25590,
25466,
25703,
25859,
25968,
25724,
25851,
25434,
24877,
24733,
24375,
24457,
24025,
24258,
24153,
23536,
23540,
23718,
23573,
23245,
23416,
23278,
22959,
23011,
23244,
22767,
22738,
22748,
22500,
22500,
22369,
22189,
22117,
22423,
21907,
21938,
22164,
21573,
21617,
21122,
21279,
21327,
20751,
21110,
20720,
20581,
20595,
20503,
20314,
20408,
20244,
20208,
20053,
20041,
19909,
19513,
19882,
19603,
19509,
19308,
19220,
19204,
19381,
19033,
19231,
19679,
19887,
20989,
22203,
22933,
23561,
23259,
21978,
20482,
19562,
18628,
18288,
17932,
17702,
17532,
17660,
17415,
17395,
17116,
17114,
16808,
16967,
16864,
16740,
16685,
16456,
16517,
16365,
16232,
16136,
16020,
15931,
15881,
15753,
15682,
15587,
15761,
15519,
15856,
15836,
16026,
16029,
16399,
16845,
17608,
20007,
24057,
31476,
42388,
58526,
77807,
94835,
103613,
98783,
84085,
62581,
43305,
28807,
20803,
16489,
14587,
13987,
13739,
13419,
13042,
13060,
13100,
12963,
12677,
12645,
12770,
12727,
12460,
12139,
12484,
12149,
12121,
12061,
12152,
12284,
12144,
12203,
12109,
12033,
11810,
11558,
11451,
11253,
11159,
10843,
11089,
11124,
10842,
10819,
10710,
10626,
10584,
10538,
10378,
10364,
10373,
10289,
10287,
10418,
10576,
10673,
10819,
11062,
11236,
11064,
11162,
11071,
11132,
11000,
10802,
10693,
10719,
10908,
12036,
14478,
18211,
23988,
30420,
35775,
39099,
38726,
34742,
28441,
22481,
17526,
13613,
11752,
10623,
10320,
9955,
9883,
9869,
9875,
9670,
9087,
8443,
8007,
7416,
7347,
7004,
6891,
6744,
6798,
6669,
6567,
6516,
6510,
6430,
6465,
6414,
6228,
6129,
6161,
6175,
5931,
6009,
5916,
5927,
5957,
5878,
5858,
5889,
5742,
5619,
5529,
5536,
5561,
5482,
5314,
5377,
5277,
5244,
5232,
5318,
5097,
5204,
5184,
5176,
5060,
4994,
5054,
4949,
4851,
4734,
4790,
4742,
4821,
4718,
4830,
5096,
5435,
5850,
6250,
6738,
6803,
6616,
5957,
5632,
5148,
4716,
4448,
4336,
4316,
4265,
4231,
4296,
4342,
4234,
4294,
4273,
4145,
4121,
3825,
3671,
3441,
3434,
3323,
3344,
3259,
3108,
3201,
3155,
3088,
3111,
3003,
3019,
3025,
2939,
3110,
2898,
2886,
2886,
2753,
2752,
2731,
2742,
2591,
2643,
2622,
2532,
2427,
2431,
2406,
2470,
2388,
2410,
2288,
2329,
2314,
2266,
2164,
2196,
2045,
2094,
2085,
2093,
2098,
2056,
1991,
2020,
1991,
1844,
1867,
1889,
1788,
1758,
1823,
1764,
1704,
1704,
1703,
1729,
1644,
1683,
1579,
1501,
1502,
1476,
1516,
1437,
1393,
1443,
1419,
1477,
1352,
1340,
1273,
1334,
1255,
1278,
1190,
1212,
1122,
1115,
1167,
1084,
1042,
1069,
999,
1017,
952,
1014,
984,
924,
973,
881,
889,
853,
776,
764,
762,
807,
762,
759,
739,
673,
676,
684,
631,
641,
571,
608,
616,
540,
534,
548,
513,
490,
505,
456,
461,
425,
426,
383,
396,
345,
344,
316,
317,
314,
262,
244,
215,
220,
219,
213,
187,
179,
144,
137,
101,
84,
84,
62,
52,
46,
39,
33,
24,
24,
26,
20,
18,
20,
22,
26,
24,
26,
26,
23,
21,
18,
13,
16,
17,
14,
21,
25,
20,
19,
6,
12,
11,
12,
21,
11,
23,
13,
23,
16,
18,
13,
14,
17,
12,
14,
12,
13,
11,
17,
17,
13,
12,
11,
15,
17,
12,
16,
19,
17,
12,
15,
23,
10,
16,
8,
11,
12,
8,
8,
16,
16,
6,
6,
11,
6,
11,
8,
8,
10,
6,
5,
9,
9,
8,
6,
7,
6,
9,
3,
7,
11,
6,
8,
7,
8,
4,
3,
6,
9,
7,
12,
7,
5,
3,
5,
6,
12,
3,
6,
10,
10,
7,
12,
8,
4,
8,
4,
9,
7,
5,
3,
5,
5,
6,
3,
14,
6,
6,
8,
10,
11,
4,
7,
2,
7,
3,
5,
1,
2,
8,
5,
2,
5,
2,
3,
4,
7,
5,
2,
5,
2,
1,
4,
2,
1,
4,
3,
2,
4,
3,
4,
3,
1,
3,
4,
3,
1,
4,
4,
2,
3,
1,
1,
2,
1,
4,
2,
1,
1,
2,
6,
2,
5,
0,
2,
1,
1,
2,
6,
6,
3,
3,
3,
2,
2,
1,
5,
1,
6,
2,
3,
0,
4,
4,
2,
0,
3,
2,
1,
3,
3,
1,
1,
1,
4,
5,
5,
1,
0,
3,
1,
0,
1,
2,
2,
3,
3,
2,
0,
3,
2,
1,
2,
1,
0,
0,
4,
2,
2,
0,
1,
3,
1,
1,
3,
1,
1,
0,
0,
1,
3,
4,
2,
0,
0,
1,
0,
2,
0,
0,
0,
0,
1,
1,
0,
2,
1,
0,
1,
0,
1,
1,
1,
2,
1,
1,
0,
0,
3,
0,
1,
2,
0,
0,
1,
0,
0,
3,
0,
2,
1,
1,
0,
1,
1,
0,
0,
2,
0,
0,
0,
1,
1,
1,
0,
1,
0,
0,
0,
0,
2,
0,
0,
1,
0,
0,
1,
0,
0,
0,
1,
2,
0,
0,
0,
1,
1,
0,
0,
0,
0,
1,
0,
0,
2,
0,
2,
1,
1,
0,
1,
1,
0,
1,
0,
0,
0,
0,
0,
0,
1,
0,
0,
1,
2,
0,
0,
0,
0,
0,
0,
0,
0,
0,
0,
1,
1,
1,
0,
0,
0,
0,
1,
0,
1,
1,
0,
0,
0,
1,
0,
0,
0,
0,
0,
1,
0,
0,
1,
0,
0,
0,
0,
0,
0,
0,
0,
0,
0,
0,
0,
0,
0,
0,
1,
0,
0,
0,
0,
0,
0,
0,
0,
1,
0,
0,
0,
0,
0,
0,
0,
0,
0,
0,
0,
0,
0,
0,
0,
0,
0,
0,
0,
0,
0,
0,
0,
0,
0,
0,
0,
0,
0,
0,
2,
0,
0,
0,
0,
0,
0,
0,
0,
0,
0,
0,
0,
0,
0,
0,
0,
0,
0,
0,
0,
0,
0,
0,
0,
0,
0,
0,
0,
0,
0,
0,
0,
0,
0,
0,
0,
0,
0,
0,
0,
0,
0,
0,
0,
0,
0,
0,
0,
0,
0,
0,
0,
0,
0,
0,
0,
0,
0,
0,
0,
0,
0,
0,
0,
0,
0,
0,
0,
0,
0,
0,
0,
0,
0,
0,
0,
0,
0,
0,
0,
0,
0,
0,
0,
0,
0,
0,
0,
0,
0,
0,
0,
0,
0,
0,
0,
0,
0,
0,
0,
0,
0,
0,
0,
0,
0,
0,
0,
0,
0,
0,
0,
0,
0,
0,
0,
0,
0,
0,
0,
0,
0,
0,
0,
0,
0,
0,
0,
0,
0,
0,
0,
0,
0,
0,
0,
0,
0,
0,
0,
0,
0,
0,
0,
0,
0,
1,
0,
0,
0,
0,
0,
0,
0,
0,
0,
0,
0,
0,
0,
0,
0,
0,
0,
0,
0,
0,
0,
0,
0,
0,
0,
0,
0,
0,
0,
0,
0,
0,
0,
0,
0,
0,
0,
0,
0,
0,
0,
0,
0,
0,
0,
0,
0,
0,
0,
0,
0,
0,
0,
0,
0,
0,
0,
0,
0,
0,
0,
0,
0,
0,
0,
0,
0,
0,
0,
0,
0,
0,
0,
0,
0,
0,
0,
0,
0,
0,
0,
0,
0,
0,
0,
0,
0,
0,
0,
0,
0,
0,
0,
0,
0,
0,
0,
0,
0,
0,
0,
0,
0,
0,
0,
0,
0,
0,
0,
#ENDOFDATA   :