File: NeXLParticle/Zeppelin/Standards/Co std.msa
#FORMAT      : EMSA/MAS Spectral Data File
#VERSION     : 1.0
#TITLE       : Co std
#DATE        : 11-OCT-2018
#TIME        : 02:03
#OWNER       : Unknown
#NPOINTS     : 4096
#NCOLUMNS    : 1
#XUNITS      : eV
#YUNITS      : counts
#DATATYPE    : Y
#XPERCHAN    : 9.99856
#OFFSET      : 1.63032
#BEAMKV      : 20
#SIGNALTYPE  : EDS
#ELEVANGLE   : 35
#AZIMANGLE   : 0
#LIVETIME    : 1158.79
#REALTIME    : 1518.71
#PROBECUR    : 0.97271
#TDEADLYR    : 0
#TACTLYR     : 0.045
#TALWIND     : 0.003
#CHOFFSET    : 0.0
#XLABEL      : Energy (eV)
#YLABEL      : Counts
#EDSDET      : SDUTW
##SPECIMEN   : Co std
##D2STDCMP   : Co,(Co:100.0),8.9
##DET_HASH   : 97086dfe-e5c2-9c77-3984-1d0b14bbbf41
##CALIB_HASH : 1a36e884-c26d-3547-51b1-d0bb2efdf95a
##WORKING    : 17.0 mm
##SAMPLE     : <BulkSample id="1">\n<mOrientation id="2">\n<double>0.0</double>\n<double>0.0</double>\n<double>-1.0</double>\n</mOrientation>\n</BulkSample>
#SPECTRUM    :
188852,
41037,
3312,
552,
166,
162,
657,
3034,
12982,
23405,
14909,
10318,
12336,
14766,
17499,
22518,
30792,
39887,
39271,
38898,
56242,
131304,
287408,
323220,
366562,
847167,
1057818,
486243,
104308,
29209,
17223,
13566,
12677,
13008,
13755,
14976,
15538,
16550,
17058,
17843,
18498,
19550,
20306,
21709,
22224,
22972,
23834,
25110,
25949,
27368,
28065,
27618,
27165,
26379,
25997,
26700,
27368,
28514,
29756,
30065,
30268,
29728,
29174,
28835,
29204,
29737,
30656,
30895,
30909,
31351,
31321,
31454,
31679,
32600,
32411,
32663,
32673,
33606,
33011,
32780,
32796,
32905,
33009,
32785,
32731,
33321,
33327,
33399,
33410,
32831,
32721,
32602,
32472,
32348,
32202,
32165,
31965,
31835,
31930,
31535,
31825,
31357,
31258,
31437,
31041,
31113,
30993,
30594,
30288,
30406,
29931,
29867,
29979,
29485,
29607,
29248,
28642,
28727,
28586,
28301,
28258,
27868,
27817,
27692,
27607,
27485,
26932,
26990,
26714,
26635,
26532,
26164,
25837,
25421,
25597,
25339,
25236,
25135,
24667,
24847,
24836,
24221,
23893,
24162,
23956,
23850,
23711,
23537,
23155,
22697,
22844,
22823,
22574,
22306,
22300,
21740,
21945,
21571,
21679,
21579,
21144,
21001,
20956,
20958,
21133,
20693,
20803,
20202,
20449,
20485,
20996,
21580,
22237,
22467,
21878,
20507,
19577,
19449,
19818,
20363,
21099,
20831,
19955,
19127,
18268,
17875,
17695,
17518,
17689,
17629,
17563,
17252,
17186,
17199,
17506,
17390,
17531,
17549,
17566,
17175,
16884,
16352,
16411,
16051,
15826,
15607,
15521,
15451,
15576,
15478,
15693,
16170,
16938,
17311,
17523,
16986,
15978,
15562,
15472,
15356,
15719,
16023,
16556,
17619,
20488,
31086,
66699,
163520,
360969,
650916,
921616,
1017547,
876472,
590229,
313844,
135936,
53995,
24480,
16109,
13695,
13002,
13019,
12822,
12794,
13000,
13088,
13511,
14167,
15520,
17639,
23644,
36947,
61826,
96549,
128198,
140078,
124745,
91415,
56046,
31024,
17335,
11249,
9137,
8447,
8362,
8222,
8413,
8100,
8171,
8083,
8065,
8080,
8014,
8145,
8151,
8092,
8248,
8048,
8124,
8070,
8286,
8001,
8073,
7916,
7830,
7580,
7540,
7522,
7459,
7455,
7486,
7447,
7405,
7289,
7251,
7379,
7300,
7221,
7108,
7253,
6955,
7081,
7115,
6931,
6798,
6878,
6899,
6703,
7065,
6830,
6763,
6549,
6570,
6817,
6610,
6698,
6389,
6420,
6411,
6485,
6416,
6367,
6281,
6202,
6275,
6254,
6385,
6350,
6246,
6110,
5988,
5988,
6046,
5852,
5792,
5944,
5903,
5863,
5662,
5738,
5779,
5664,
5658,
5508,
5525,
5607,
5509,
5377,
5570,
5491,
5594,
5546,
5418,
5463,
5460,
5207,
5219,
5139,
5222,
4867,
5082,
4879,
4982,
4882,
4988,
4855,
4789,
4766,
4839,
4669,
4574,
4706,
4611,
4568,
4584,
4626,
4412,
4506,
4431,
4407,
4333,
4282,
4355,
4362,
4192,
4244,
4173,
4168,
4193,
4100,
3993,
4057,
3933,
3943,
3899,
3854,
3833,
3829,
4009,
3764,
3670,
3627,
3677,
3692,
3649,
3583,
3522,
3624,
3437,
3542,
3504,
3459,
3437,
3431,
3404,
3311,
3354,
3291,
3376,
3296,
3334,
3265,
3208,
3132,
3246,
3135,
3128,
2915,
3009,
3056,
2868,
2897,
2942,
2820,
2878,
2833,
2748,
2789,
2746,
2708,
2705,
2579,
2602,
2583,
2560,
2579,
2581,
2460,
2616,
2495,
2411,
2408,
2413,
2336,
2274,
2425,
2404,
2417,
2569,
2596,
2739,
2843,
2805,
2786,
2733,
2441,
2281,
2150,
2138,
2057,
2019,
1972,
1983,
1929,
1881,
1869,
1906,
1906,
1824,
1835,
1807,
1843,
1907,
1845,
1860,
1840,
1917,
1817,
1797,
1680,
1708,
1542,
1586,
1610,
1630,
1538,
1531,
1532,
1469,
1501,
1481,
1447,
1439,
1414,
1438,
1395,
1339,
1362,
1329,
1320,
1321,
1241,
1238,
1274,
1309,
1212,
1234,
1198,
1210,
1198,
1157,
1150,
1100,
1198,
1117,
1060,
1015,
1005,
1063,
1002,
978,
1002,
917,
970,
941,
964,
923,
908,
918,
901,
879,
924,
875,
840,
843,
789,
813,
825,
784,
790,
748,
770,
787,
710,
732,
756,
748,
677,
676,
646,
661,
638,
648,
645,
615,
620,
597,
628,
594,
646,
535,
550,
567,
503,
555,
519,
511,
542,
499,
510,
542,
488,
466,
467,
420,
450,
459,
409,
406,
387,
430,
364,
392,
363,
334,
378,
366,
371,
341,
319,
307,
322,
323,
292,
293,
287,
340,
298,
250,
268,
268,
265,
293,
263,
250,
226,
225,
225,
192,
212,
193,
203,
193,
186,
180,
180,
176,
161,
165,
158,
150,
135,
130,
145,
130,
110,
130,
117,
119,
125,
102,
102,
99,
98,
103,
101,
72,
88,
80,
71,
61,
64,
63,
58,
49,
53,
47,
34,
43,
53,
27,
30,
20,
28,
22,
19,
18,
14,
15,
15,
8,
5,
2,
2,
7,
7,
2,
6,
4,
9,
1,
4,
7,
3,
2,
2,
6,
6,
2,
4,
5,
1,
4,
5,
1,
1,
7,
5,
6,
4,
2,
1,
6,
6,
2,
4,
4,
8,
4,
2,
3,
4,
3,
1,
3,
1,
3,
4,
2,
3,
2,
5,
2,
2,
7,
1,
0,
2,
0,
2,
4,
3,
2,
3,
3,
2,
1,
8,
1,
2,
2,
3,
1,
0,
1,
1,
1,
1,
2,
4,
4,
3,
2,
0,
1,
1,
4,
1,
4,
1,
1,
3,
3,
2,
1,
1,
3,
2,
0,
0,
2,
1,
1,
2,
1,
1,
2,
1,
1,
7,
1,
2,
0,
2,
4,
0,
1,
0,
4,
3,
3,
1,
2,
2,
0,
1,
0,
1,
0,
1,
0,
5,
0,
1,
2,
0,
1,
1,
2,
0,
1,
2,
1,
1,
0,
0,
1,
0,
1,
1,
0,
3,
1,
1,
0,
1,
1,
0,
0,
1,
0,
1,
1,
0,
0,
0,
2,
0,
0,
0,
1,
1,
2,
0,
0,
1,
0,
0,
0,
0,
0,
0,
0,
0,
1,
1,
3,
0,
0,
1,
0,
1,
1,
0,
0,
0,
0,
0,
0,
0,
0,
0,
2,
0,
0,
0,
0,
0,
0,
0,
0,
0,
0,
0,
3,
0,
0,
1,
0,
0,
0,
0,
0,
0,
0,
0,
0,
0,
0,
0,
1,
0,
0,
0,
0,
0,
0,
0,
0,
0,
0,
0,
1,
0,
0,
1,
0,
0,
0,
0,
0,
0,
0,
0,
0,
0,
0,
0,
0,
1,
0,
0,
0,
0,
0,
0,
0,
0,
0,
0,
0,
0,
0,
0,
0,
0,
0,
0,
0,
0,
0,
0,
0,
0,
0,
0,
0,
0,
0,
0,
0,
0,
0,
0,
0,
0,
0,
0,
0,
0,
0,
0,
0,
0,
0,
0,
0,
0,
0,
0,
0,
0,
0,
0,
0,
0,
0,
0,
0,
0,
0,
0,
0,
0,
0,
0,
0,
0,
0,
0,
0,
0,
0,
0,
0,
0,
0,
0,
0,
0,
0,
0,
0,
0,
0,
0,
0,
1,
0,
0,
0,
0,
0,
0,
0,
0,
0,
0,
0,
0,
0,
0,
0,
0,
0,
0,
0,
0,
0,
0,
0,
0,
0,
0,
0,
0,
0,
0,
0,
0,
0,
0,
0,
0,
0,
0,
0,
0,
0,
0,
0,
0,
0,
0,
0,
0,
0,
0,
0,
0,
0,
0,
0,
0,
0,
0,
0,
0,
0,
0,
0,
0,
0,
0,
0,
0,
0,
0,
0,
0,
0,
0,
0,
0,
0,
0,
0,
0,
0,
0,
0,
0,
0,
0,
0,
0,
0,
0,
0,
0,
0,
0,
0,
0,
0,
0,
0,
0,
0,
0,
0,
0,
0,
1,
0,
0,
0,
0,
0,
0,
0,
0,
0,
0,
0,
0,
0,
0,
0,
0,
0,
0,
0,
0,
0,
0,
0,
0,
0,
0,
0,
0,
0,
0,
0,
0,
0,
0,
0,
0,
0,
0,
0,
0,
0,
0,
0,
0,
0,
0,
0,
0,
0,
0,
0,
0,
0,
0,
0,
0,
0,
0,
0,
0,
0,
0,
0,
0,
0,
0,
0,
0,
0,
0,
0,
0,
0,
0,
0,
0,
0,
0,
0,
0,
0,
0,
0,
0,
0,
0,
0,
0,
0,
0,
0,
0,
0,
0,
0,
0,
0,
0,
0,
0,
0,
0,
0,
0,
0,
0,
0,
0,
0,
0,
0,
0,
0,
0,
0,
0,
0,
0,
0,
0,
0,
0,
0,
0,
0,
0,
0,
0,
0,
0,
0,
0,
0,
0,
0,
0,
0,
0,
0,
0,
0,
0,
0,
0,
0,
0,
0,
0,
0,
0,
0,
0,
0,
0,
0,
0,
0,
0,
0,
0,
0,
0,
0,
0,
0,
0,
0,
0,
0,
0,
0,
0,
0,
0,
0,
0,
0,
0,
0,
0,
0,
0,
0,
0,
0,
0,
0,
0,
0,
0,
0,
0,
0,
0,
0,
0,
0,
0,
0,
0,
0,
0,
0,
0,
0,
0,
0,
0,
0,
0,
0,
0,
0,
0,
0,
0,
0,
0,
0,
0,
0,
0,
0,
0,
0,
0,
0,
0,
0,
0,
0,
0,
0,
0,
0,
0,
0,
0,
0,
0,
0,
0,
#ENDOFDATA   :