File: NeXLParticle/Zeppelin/Standards/F std.msa
#FORMAT      : EMSA/MAS Spectral Data File
#VERSION     : 1.0
#TITLE       : CaF2 std
#DATE        : 11-OCT-2018
#TIME        : 00:52
#OWNER       : Unknown
#NPOINTS     : 4096
#NCOLUMNS    : 1
#XUNITS      : eV
#YUNITS      : counts
#DATATYPE    : Y
#XPERCHAN    : 9.99856
#OFFSET      : 1.63032
#BEAMKV      : 20
#SIGNALTYPE  : EDS
#ELEVANGLE   : 35
#AZIMANGLE   : 0
#LIVETIME    : 1167.54
#REALTIME    : 1451.98
#PROBECUR    : 0.97401
#TDEADLYR    : 0
#TACTLYR     : 0.045
#TALWIND     : 0.003
#CHOFFSET    : 0.0
#XLABEL      : Energy (eV)
#YLABEL      : Counts
#EDSDET      : SDUTW
##SPECIMEN   : CaF2 std
##D2STDCMP   : CaF2,(F:48.6667),(Ca:51.3333),3.18
##DET_HASH   : 97086dfe-e5c2-9c77-3984-1d0b14bbbf41
##CALIB_HASH : 1a36e884-c26d-3547-51b1-d0bb2efdf95a
##WORKING    : 17.0 mm
##SAMPLE     : <BulkSample id="1">\n<mOrientation id="2">\n<double>0.0</double>\n<double>0.0</double>\n<double>-1.0</double>\n</mOrientation>\n</BulkSample>
#SPECTRUM    :
196810,
40092,
2660,
374,
177,
177,
761,
5329,
34210,
69725,
39309,
14808,
8750,
6247,
6109,
8068,
17358,
33507,
28544,
17505,
35589,
168765,
458779,
424180,
131696,
22571,
10767,
10492,
10983,
11799,
12810,
13767,
15146,
18963,
28430,
31501,
23758,
19009,
18840,
19380,
20082,
20889,
21619,
22281,
23224,
23966,
24479,
24926,
26210,
27488,
27935,
26475,
25906,
25163,
27080,
33987,
44130,
48826,
44294,
38153,
32491,
29277,
28554,
31316,
38479,
43290,
37701,
29754,
26280,
25062,
25291,
25088,
25332,
25213,
25844,
27144,
28003,
28048,
26790,
25208,
23999,
24089,
23819,
23992,
23307,
23333,
23556,
23913,
23607,
23075,
22727,
22413,
22399,
22266,
22167,
21911,
21772,
21430,
21385,
21185,
21224,
21260,
20958,
20882,
21079,
20863,
20680,
20981,
20539,
20319,
19710,
19207,
19058,
19106,
19201,
20052,
21194,
24613,
33312,
70440,
215010,
606700,
1215208,
1609219,
1386010,
781961,
300008,
89489,
32756,
25284,
32675,
58287,
112400,
179614,
207419,
166864,
94506,
42468,
19309,
12745,
11273,
10973,
11160,
11039,
11645,
12079,
12242,
11518,
10913,
10401,
10186,
10253,
10079,
10362,
10178,
10296,
10193,
10168,
10281,
9910,
9792,
9859,
9561,
9569,
9583,
9628,
9456,
9292,
9153,
9205,
9381,
8860,
9183,
8944,
9181,
8892,
8930,
9004,
8913,
8989,
9029,
8879,
8726,
8670,
8595,
8583,
8311,
8261,
8382,
8246,
8218,
8019,
8153,
8018,
8006,
8036,
8034,
8250,
8098,
7751,
7668,
7559,
7532,
7546,
7466,
7522,
7233,
7323,
7177,
7132,
7317,
7304,
7442,
7472,
7372,
7260,
7215,
7006,
6912,
6774,
6713,
6563,
6555,
6626,
6493,
6380,
6308,
6333,
6369,
6268,
6072,
6193,
6066,
6120,
6091,
6007,
6010,
6037,
5957,
5813,
5817,
5815,
6009,
6317,
6664,
7371,
7582,
7786,
6925,
6764,
5957,
5506,
5623,
5355,
5472,
5614,
5588,
5702,
5580,
5398,
5346,
5114,
4931,
4926,
5074,
4889,
4883,
4919,
4902,
4802,
4776,
4783,
4761,
4563,
4713,
4523,
4459,
4363,
4452,
4228,
4325,
4330,
4333,
4267,
4326,
4176,
4288,
4220,
4262,
4305,
4050,
4190,
4078,
4095,
4065,
3874,
3871,
3909,
3989,
3870,
3876,
3805,
3762,
3728,
3820,
3633,
3640,
3639,
3732,
3718,
3633,
3630,
3451,
3475,
3465,
3409,
3343,
3336,
3346,
3366,
3446,
3354,
3253,
3329,
3093,
3254,
3218,
3184,
3198,
3190,
3097,
3106,
3027,
3086,
2932,
2947,
2963,
2969,
2901,
2949,
2934,
2935,
2874,
2806,
2879,
2788,
2750,
2845,
2835,
2758,
2743,
2682,
2677,
2656,
2659,
2616,
2621,
2503,
2419,
2490,
2479,
2476,
2462,
2414,
2411,
2396,
2430,
2290,
2393,
2361,
2244,
2251,
2290,
2198,
2237,
2206,
2210,
2226,
2174,
2140,
2142,
2091,
2034,
1962,
2113,
2045,
1988,
1886,
1926,
1944,
1815,
1960,
1946,
1885,
1922,
1801,
1857,
1802,
1827,
1785,
1773,
1668,
1706,
1641,
1695,
1725,
1712,
1661,
1696,
1646,
1519,
1577,
1579,
1510,
1491,
1605,
1546,
1533,
1567,
1535,
1482,
1564,
1473,
1518,
1469,
1406,
1413,
1301,
1466,
1440,
1349,
1328,
1281,
1290,
1292,
1322,
1277,
1260,
1307,
1221,
1297,
1311,
1374,
1532,
1563,
1666,
1616,
1600,
1511,
1329,
1257,
1166,
1140,
1113,
1070,
1089,
1006,
1020,
1030,
981,
1001,
902,
921,
970,
920,
903,
912,
919,
935,
859,
868,
830,
880,
866,
857,
823,
808,
819,
768,
761,
712,
766,
782,
745,
723,
770,
787,
738,
692,
697,
700,
704,
727,
689,
701,
719,
689,
718,
731,
657,
665,
653,
656,
679,
634,
565,
596,
567,
553,
612,
561,
512,
550,
518,
519,
488,
528,
510,
514,
488,
471,
502,
470,
470,
415,
476,
455,
469,
437,
393,
437,
389,
363,
358,
386,
371,
370,
350,
367,
340,
349,
345,
323,
334,
336,
326,
299,
355,
318,
301,
297,
302,
284,
276,
279,
247,
264,
273,
282,
232,
253,
258,
273,
220,
221,
226,
224,
257,
225,
239,
208,
197,
218,
219,
202,
189,
188,
197,
171,
175,
196,
172,
183,
179,
167,
148,
146,
137,
139,
131,
132,
165,
155,
140,
122,
131,
123,
102,
112,
120,
114,
111,
112,
99,
102,
116,
88,
112,
118,
87,
83,
83,
74,
85,
77,
85,
80,
62,
60,
67,
70,
61,
57,
60,
66,
68,
52,
56,
51,
63,
42,
47,
37,
35,
46,
27,
35,
39,
24,
34,
33,
28,
27,
24,
30,
21,
25,
24,
22,
12,
25,
19,
12,
20,
13,
8,
4,
12,
11,
5,
6,
7,
8,
10,
3,
4,
3,
2,
1,
1,
4,
3,
3,
2,
2,
3,
0,
1,
0,
1,
2,
2,
1,
1,
2,
0,
1,
1,
1,
0,
5,
2,
0,
1,
0,
2,
0,
1,
1,
1,
1,
0,
0,
1,
1,
2,
1,
0,
0,
1,
1,
1,
1,
1,
1,
0,
1,
0,
0,
1,
1,
0,
0,
0,
1,
0,
0,
0,
0,
1,
0,
1,
0,
0,
1,
0,
0,
0,
0,
0,
0,
0,
1,
0,
0,
0,
0,
0,
0,
1,
0,
0,
0,
0,
0,
0,
0,
0,
0,
0,
1,
0,
0,
0,
1,
1,
0,
0,
2,
0,
0,
0,
1,
0,
0,
0,
0,
0,
1,
0,
0,
0,
0,
0,
0,
2,
0,
0,
0,
0,
0,
0,
0,
0,
0,
0,
0,
0,
0,
0,
0,
0,
0,
1,
1,
0,
0,
0,
0,
0,
0,
0,
0,
0,
0,
0,
0,
0,
0,
0,
0,
1,
0,
0,
0,
0,
0,
0,
0,
0,
0,
1,
0,
0,
0,
0,
0,
0,
0,
0,
0,
0,
0,
0,
0,
0,
0,
0,
0,
0,
0,
0,
0,
0,
0,
0,
0,
0,
0,
1,
0,
0,
0,
0,
0,
0,
0,
0,
0,
0,
0,
0,
0,
0,
0,
0,
0,
0,
0,
0,
0,
0,
0,
0,
0,
0,
0,
0,
0,
0,
0,
0,
0,
0,
0,
0,
0,
0,
0,
0,
0,
0,
0,
0,
0,
0,
0,
0,
0,
0,
0,
0,
0,
0,
0,
0,
0,
0,
0,
0,
0,
0,
0,
0,
0,
0,
0,
0,
0,
0,
0,
0,
0,
0,
0,
0,
0,
0,
0,
0,
0,
0,
0,
0,
0,
0,
0,
0,
0,
0,
0,
0,
0,
0,
0,
0,
0,
0,
0,
0,
0,
0,
0,
0,
0,
0,
0,
0,
0,
0,
1,
0,
0,
0,
0,
0,
1,
0,
0,
0,
0,
0,
0,
0,
0,
0,
0,
0,
0,
0,
0,
0,
0,
0,
0,
0,
0,
0,
0,
0,
0,
0,
0,
0,
0,
0,
0,
0,
0,
0,
0,
0,
0,
0,
0,
0,
0,
0,
0,
0,
0,
0,
0,
0,
0,
0,
0,
0,
0,
0,
0,
0,
0,
0,
0,
0,
0,
0,
0,
0,
0,
0,
0,
0,
0,
0,
0,
0,
0,
0,
0,
0,
0,
0,
0,
0,
0,
0,
0,
0,
0,
0,
0,
0,
0,
0,
0,
0,
0,
0,
0,
0,
0,
0,
0,
0,
0,
0,
0,
0,
0,
0,
0,
0,
0,
0,
0,
0,
0,
0,
0,
0,
0,
0,
0,
0,
0,
0,
0,
0,
0,
0,
0,
0,
0,
0,
0,
0,
0,
0,
0,
0,
0,
0,
0,
0,
0,
0,
0,
0,
0,
0,
0,
0,
0,
0,
0,
0,
0,
0,
0,
0,
0,
0,
0,
0,
0,
0,
0,
0,
0,
0,
0,
0,
0,
0,
0,
0,
0,
0,
0,
0,
0,
0,
0,
0,
0,
0,
0,
0,
0,
0,
0,
0,
0,
0,
0,
0,
0,
0,
0,
0,
0,
0,
0,
0,
0,
0,
0,
0,
0,
0,
0,
0,
0,
0,
0,
0,
0,
0,
0,
0,
0,
0,
0,
0,
0,
0,
0,
0,
0,
0,
0,
0,
0,
0,
0,
0,
0,
0,
0,
0,
0,
0,
0,
0,
0,
0,
0,
0,
0,
0,
0,
0,
0,
0,
0,
0,
0,
0,
0,
0,
0,
0,
0,
0,
0,
0,
0,
0,
0,
0,
0,
0,
0,
0,
0,
0,
0,
0,
0,
0,
0,
0,
0,
0,
0,
0,
0,
0,
0,
0,
0,
0,
0,
0,
0,
0,
0,
0,
0,
0,
0,
0,
0,
0,
0,
0,
0,
0,
0,
0,
0,
0,
0,
0,
0,
0,
0,
0,
0,
0,
0,
0,
0,
0,
0,
0,
0,
0,
0,
0,
0,
0,
0,
0,
0,
0,
0,
0,
0,
0,
0,
0,
0,
0,
0,
0,
0,
0,
0,
0,
0,
0,
0,
0,
0,
0,
0,
0,
0,
0,
0,
0,
0,
0,
0,
0,
0,
0,
0,
0,
0,
0,
0,
0,
0,
0,
0,
0,
0,
0,
0,
0,
0,
0,
0,
0,
0,
0,
0,
0,
0,
0,
0,
0,
#ENDOFDATA   :