File: NeXLParticle/Zeppelin/Standards/Fe std.msa
#FORMAT      : EMSA/MAS Spectral Data File
#VERSION     : 1.0
#TITLE       : Fe std
#DATE        : 11-OCT-2018
#TIME        : 01:21
#OWNER       : Unknown
#NPOINTS     : 4096
#NCOLUMNS    : 1
#XUNITS      : eV
#YUNITS      : counts
#DATATYPE    : Y
#XPERCHAN    : 9.99856
#OFFSET      : 1.63032
#BEAMKV      : 20
#SIGNALTYPE  : EDS
#ELEVANGLE   : 35
#AZIMANGLE   : 0
#LIVETIME    : 1164.66
#REALTIME    : 1521.64
#PROBECUR    : 0.97436
#TDEADLYR    : 0
#TACTLYR     : 0.045
#TALWIND     : 0.003
#CHOFFSET    : 0.0
#XLABEL      : Energy (eV)
#YLABEL      : Counts
#EDSDET      : SDUTW
##SPECIMEN   : Fe std
##D2STDCMP   : Fe,(Fe:100.0),7.87
##DET_HASH   : 97086dfe-e5c2-9c77-3984-1d0b14bbbf41
##CALIB_HASH : 1a36e884-c26d-3547-51b1-d0bb2efdf95a
##WORKING    : 17.0 mm
##SAMPLE     : <BulkSample id="1">\n<mOrientation id="2">\n<double>0.0</double>\n<double>0.0</double>\n<double>-1.0</double>\n</mOrientation>\n</BulkSample>
#SPECTRUM    :
197982,
43249,
3439,
581,
216,
213,
738,
4213,
22311,
43400,
24020,
10557,
11502,
13830,
16853,
22867,
37527,
58888,
65587,
114975,
240002,
261257,
346910,
648530,
530550,
163285,
35725,
17673,
13357,
12465,
13172,
14130,
14937,
17518,
22891,
24614,
21206,
19255,
19250,
20073,
21161,
22222,
23106,
24042,
24662,
25280,
25832,
26910,
27988,
29814,
30403,
29342,
28133,
28496,
30154,
38684,
51830,
57057,
52576,
44926,
38303,
34177,
31512,
30434,
30422,
30512,
31459,
31239,
31820,
32132,
32337,
32383,
32586,
32840,
33489,
33708,
34927,
35855,
35498,
34204,
33643,
33616,
33267,
33376,
33327,
33630,
34489,
35047,
35013,
34141,
33097,
32695,
32463,
32506,
32599,
32189,
32292,
32203,
31775,
31176,
31216,
31258,
31012,
31018,
30900,
30823,
30197,
30609,
30216,
30134,
29992,
30217,
29558,
29505,
29007,
29190,
28698,
28278,
28342,
28272,
28128,
27514,
28154,
27662,
27375,
26924,
26961,
27000,
26518,
26225,
26026,
25944,
26153,
25811,
25181,
24887,
24999,
24856,
24625,
24616,
24655,
24082,
24197,
23724,
23454,
23587,
23274,
22817,
22806,
22621,
22753,
23012,
23344,
24017,
25654,
26272,
25409,
24269,
22358,
21441,
21038,
21034,
20547,
20474,
20386,
20131,
20145,
19797,
19469,
19831,
19535,
19549,
19422,
19371,
19283,
19073,
19281,
19517,
19336,
19906,
20392,
19909,
19444,
18856,
18219,
18075,
17545,
17652,
17329,
17140,
17072,
16838,
16872,
16515,
17052,
17016,
17064,
17305,
17144,
17052,
17004,
16812,
16971,
17421,
17873,
18573,
20157,
25121,
45025,
108454,
272471,
572908,
943972,
1199205,
1161901,
864482,
495013,
223455,
86005,
34422,
19384,
15470,
14733,
14580,
14323,
14265,
14565,
15171,
15842,
17555,
22435,
33980,
59287,
97970,
141627,
164353,
154648,
116547,
72764,
39235,
20620,
12797,
10177,
9225,
8982,
8985,
9114,
9087,
9005,
8745,
9089,
8902,
9024,
8931,
8874,
8748,
9016,
8834,
9032,
8822,
8723,
8632,
8344,
8308,
8396,
8419,
8348,
8401,
8404,
8353,
8346,
8276,
8202,
7954,
8072,
7916,
7930,
7851,
7817,
7872,
7858,
7655,
7550,
7654,
7657,
7697,
7580,
7551,
7453,
7430,
7534,
7348,
7370,
7347,
7341,
7090,
7051,
7186,
7023,
7014,
7018,
6925,
6956,
6924,
6924,
6927,
6701,
6493,
6781,
6582,
6662,
6542,
6508,
6576,
6422,
6571,
6393,
6341,
6344,
6246,
6203,
6239,
6322,
6267,
6199,
6126,
6046,
5971,
6049,
5859,
5997,
5826,
5746,
5812,
5792,
5744,
5759,
5604,
5664,
5543,
5590,
5481,
5469,
5416,
5395,
5420,
5362,
5290,
5405,
5287,
5367,
5406,
5237,
5303,
5236,
5125,
5060,
5076,
4973,
4874,
4991,
4868,
4883,
4710,
4753,
4678,
4669,
4617,
4656,
4553,
4466,
4459,
4537,
4442,
4398,
4469,
4239,
4303,
4299,
4177,
4265,
4160,
4266,
4024,
4085,
4018,
3955,
4023,
4023,
3934,
3866,
3949,
3950,
3775,
3756,
3822,
3800,
3690,
3807,
3640,
3527,
3410,
3620,
3542,
3588,
3415,
3478,
3429,
3355,
3443,
3412,
3440,
3227,
3285,
3265,
3235,
3221,
3169,
3076,
3150,
3161,
3273,
3353,
3437,
3663,
3852,
3844,
3910,
3848,
3597,
3383,
3084,
2924,
2741,
2733,
2745,
2715,
2703,
2651,
2679,
2707,
2713,
2784,
2904,
3104,
3142,
3121,
3195,
3179,
2866,
2683,
2661,
2502,
2345,
2327,
2211,
2154,
2118,
2184,
2125,
2122,
2056,
2166,
2076,
2091,
2082,
2018,
1989,
1933,
2004,
1928,
1846,
1973,
1871,
1795,
1798,
1667,
1760,
1712,
1794,
1730,
1670,
1662,
1645,
1711,
1618,
1664,
1688,
1538,
1589,
1570,
1586,
1532,
1496,
1476,
1448,
1538,
1465,
1429,
1541,
1419,
1426,
1359,
1343,
1353,
1350,
1316,
1250,
1255,
1263,
1248,
1281,
1199,
1168,
1151,
1130,
1084,
1097,
1140,
1021,
1110,
1079,
1047,
1048,
1047,
1015,
1073,
1017,
953,
1029,
955,
910,
901,
939,
904,
890,
866,
888,
911,
888,
885,
790,
791,
806,
772,
721,
769,
714,
757,
738,
755,
705,
695,
704,
683,
668,
667,
653,
597,
628,
654,
600,
632,
596,
607,
623,
565,
572,
532,
570,
534,
525,
482,
471,
490,
489,
476,
471,
445,
463,
452,
451,
416,
451,
400,
380,
416,
381,
401,
400,
357,
344,
362,
379,
358,
335,
309,
359,
315,
293,
316,
305,
309,
281,
272,
257,
279,
272,
219,
249,
256,
209,
235,
212,
237,
234,
214,
212,
201,
165,
195,
183,
165,
170,
194,
162,
147,
144,
143,
142,
115,
120,
127,
140,
133,
130,
119,
94,
107,
110,
88,
88,
78,
73,
77,
71,
60,
76,
68,
62,
59,
55,
67,
58,
57,
44,
46,
31,
22,
22,
31,
28,
15,
20,
22,
11,
13,
6,
23,
16,
5,
9,
4,
2,
4,
9,
4,
7,
4,
4,
3,
4,
3,
8,
5,
3,
3,
3,
3,
3,
2,
5,
2,
3,
1,
2,
4,
5,
3,
5,
3,
9,
2,
3,
4,
4,
4,
8,
3,
1,
2,
6,
2,
1,
5,
4,
3,
2,
3,
4,
8,
6,
4,
1,
1,
4,
2,
1,
1,
4,
2,
2,
3,
4,
0,
1,
2,
2,
1,
3,
1,
1,
4,
3,
4,
0,
1,
0,
4,
1,
2,
5,
0,
2,
3,
3,
1,
1,
2,
4,
0,
3,
3,
1,
4,
0,
1,
2,
0,
1,
0,
1,
1,
3,
0,
1,
1,
0,
0,
1,
2,
4,
0,
3,
0,
0,
2,
1,
1,
1,
2,
2,
1,
0,
0,
1,
0,
1,
1,
3,
1,
0,
0,
0,
0,
0,
1,
0,
0,
1,
1,
1,
0,
2,
0,
1,
0,
0,
1,
0,
1,
0,
0,
0,
0,
1,
0,
0,
0,
1,
1,
1,
1,
0,
0,
0,
0,
0,
0,
0,
0,
0,
0,
0,
0,
0,
0,
1,
0,
0,
1,
0,
0,
0,
0,
0,
1,
0,
1,
0,
0,
0,
0,
0,
1,
0,
0,
1,
0,
0,
0,
0,
0,
0,
0,
0,
0,
0,
0,
0,
0,
0,
0,
0,
0,
0,
0,
0,
0,
0,
0,
0,
0,
0,
0,
0,
0,
0,
0,
0,
1,
0,
0,
1,
0,
1,
0,
0,
0,
0,
0,
0,
0,
0,
0,
0,
0,
0,
0,
0,
0,
0,
0,
0,
0,
0,
0,
0,
0,
0,
1,
0,
0,
0,
0,
0,
0,
0,
0,
0,
0,
0,
0,
0,
0,
0,
0,
0,
0,
0,
0,
0,
0,
0,
1,
0,
0,
0,
0,
1,
0,
0,
0,
0,
0,
0,
0,
0,
0,
0,
0,
0,
0,
0,
0,
0,
0,
0,
0,
0,
0,
0,
0,
0,
0,
0,
0,
0,
0,
0,
0,
0,
0,
0,
0,
0,
0,
0,
0,
0,
0,
0,
0,
0,
0,
0,
0,
0,
0,
0,
0,
0,
0,
0,
0,
0,
0,
0,
0,
0,
0,
0,
0,
0,
0,
0,
0,
0,
0,
0,
0,
0,
0,
0,
0,
0,
0,
0,
0,
0,
0,
0,
0,
0,
0,
0,
0,
0,
0,
0,
0,
0,
0,
0,
0,
0,
0,
0,
0,
0,
0,
0,
0,
0,
0,
0,
0,
0,
0,
0,
0,
0,
0,
0,
0,
0,
0,
0,
0,
0,
0,
0,
0,
0,
0,
0,
0,
0,
0,
0,
0,
0,
0,
0,
0,
0,
0,
0,
0,
0,
0,
0,
0,
0,
0,
0,
0,
0,
0,
0,
0,
0,
0,
0,
0,
0,
0,
0,
0,
0,
0,
0,
0,
0,
0,
0,
0,
0,
0,
0,
0,
0,
0,
0,
0,
0,
0,
0,
0,
0,
0,
0,
0,
0,
0,
0,
0,
0,
0,
0,
0,
0,
0,
0,
0,
0,
0,
0,
0,
0,
0,
0,
0,
0,
0,
0,
0,
0,
0,
0,
0,
0,
0,
0,
0,
0,
0,
0,
0,
0,
0,
0,
0,
0,
0,
0,
0,
0,
0,
0,
0,
0,
0,
0,
0,
0,
0,
0,
0,
0,
0,
0,
0,
0,
0,
0,
0,
0,
0,
0,
0,
0,
0,
0,
0,
0,
0,
0,
0,
0,
0,
0,
0,
0,
0,
0,
0,
0,
0,
0,
0,
0,
0,
0,
0,
0,
0,
0,
0,
0,
0,
0,
0,
0,
0,
0,
0,
0,
0,
0,
0,
0,
0,
0,
0,
0,
0,
0,
0,
0,
0,
0,
0,
0,
0,
0,
0,
0,
0,
0,
0,
0,
0,
0,
0,
0,
0,
0,
0,
0,
0,
0,
0,
0,
0,
0,
0,
0,
0,
0,
0,
0,
0,
0,
0,
0,
0,
0,
0,
0,
0,
0,
0,
0,
0,
0,
0,
0,
0,
0,
0,
0,
0,
0,
0,
0,
0,
0,
0,
0,
0,
0,
0,
0,
0,
0,
0,
0,
0,
0,
0,
0,
0,
0,
0,
0,
0,
0,
0,
0,
0,
0,
0,
0,
0,
0,
0,
0,
0,
0,
0,
0,
0,
0,
0,
0,
0,
0,
0,
0,
0,
0,
0,
0,
0,
0,
#ENDOFDATA   :