File: NeXLParticle/Zeppelin/Standards/K std.msa
#FORMAT      : EMSA/MAS Spectral Data File
#VERSION     : 1.0
#TITLE       : KBr std
#DATE        : 11-OCT-2018
#TIME        : 02:39
#OWNER       : Unknown
#NPOINTS     : 4096
#NCOLUMNS    : 1
#XUNITS      : eV
#YUNITS      : counts
#DATATYPE    : Y
#XPERCHAN    : 9.99856
#OFFSET      : 1.63032
#BEAMKV      : 20
#SIGNALTYPE  : EDS
#ELEVANGLE   : 35
#AZIMANGLE   : 0
#LIVETIME    : 1147.26
#REALTIME    : 1605.11
#PROBECUR    : 0.97392
#TDEADLYR    : 0
#TACTLYR     : 0.045
#TALWIND     : 0.003
#CHOFFSET    : 0.0
#XLABEL      : Energy (eV)
#YLABEL      : Counts
#EDSDET      : SDUTW
##SPECIMEN   : KBr std
##D2STDCMP   : KBr,(K:32.8551),(Br:67.1449),5.0
##DET_HASH   : 97086dfe-e5c2-9c77-3984-1d0b14bbbf41
##CALIB_HASH : 1a36e884-c26d-3547-51b1-d0bb2efdf95a
##WORKING    : 17.0 mm
##SAMPLE     : <BulkSample id="1">\n<mOrientation id="2">\n<double>0.0</double>\n<double>0.0</double>\n<double>-1.0</double>\n</mOrientation>\n</BulkSample>
#SPECTRUM    :
192713,
40552,
3014,
535,
157,
190,
731,
4591,
19526,
29060,
14424,
6552,
6688,
6997,
7859,
9512,
12691,
16563,
15878,
14291,
15511,
17835,
20287,
24007,
25735,
27428,
29732,
32564,
35662,
37725,
38547,
40353,
42076,
43932,
47251,
48883,
49716,
50568,
52484,
54132,
57512,
70012,
108709,
153838,
153730,
122517,
112826,
275774,
996216,
2101854,
2347614,
1600263,
738782,
252400,
89954,
42746,
29133,
27674,
29175,
29148,
28160,
26482,
24962,
24194,
23930,
24043,
24356,
24636,
25089,
25597,
25666,
26077,
26356,
26343,
26925,
27197,
27386,
27973,
27660,
27888,
28237,
28214,
28285,
28290,
28586,
28709,
29753,
30476,
30389,
29906,
29515,
29592,
29643,
29960,
30023,
29917,
30831,
31093,
32194,
33800,
33519,
32617,
31025,
30545,
30990,
34432,
44274,
87756,
243973,
589924,
965899,
1014715,
675981,
296697,
102271,
45013,
38686,
52572,
86872,
128542,
141631,
111286,
65482,
36676,
24908,
22078,
21322,
21434,
21279,
21003,
21198,
21189,
21086,
20960,
21105,
21146,
20748,
20678,
20699,
20844,
20580,
20398,
20452,
20496,
20295,
20111,
20046,
19982,
19884,
19746,
19639,
19918,
19409,
19323,
19701,
19572,
19489,
19816,
20508,
21924,
23027,
22711,
21730,
20339,
19404,
18474,
18201,
18314,
18303,
18259,
18322,
17779,
17998,
17599,
17349,
17280,
17009,
17202,
17106,
17442,
17575,
17415,
17089,
16437,
16114,
16258,
16091,
15983,
16148,
15672,
15596,
15680,
15531,
15314,
15166,
15317,
15381,
14989,
15056,
15071,
14613,
14792,
14578,
14417,
14257,
14287,
14044,
14140,
14200,
14132,
14440,
14759,
15678,
15716,
15614,
15131,
14196,
13782,
13382,
13549,
13756,
13947,
13729,
13287,
13046,
12796,
12614,
12321,
12526,
12346,
12445,
12352,
12328,
12510,
12273,
12379,
12001,
11950,
11832,
11559,
11550,
11532,
11382,
11210,
11172,
11176,
11201,
11283,
11146,
11212,
11168,
11164,
10798,
10651,
10415,
10229,
10404,
10569,
10346,
10086,
10118,
10070,
10134,
9904,
9826,
9903,
9763,
9738,
9779,
9786,
9574,
9529,
9490,
9272,
9158,
9381,
9153,
9052,
9223,
9176,
9171,
8710,
8997,
8849,
8849,
8787,
8774,
8613,
8457,
8416,
8707,
8361,
8278,
8226,
8292,
8119,
7978,
8264,
8089,
7992,
7884,
7814,
7804,
7863,
7739,
7797,
7702,
7603,
7581,
7482,
7496,
7359,
7167,
7313,
7353,
7296,
7169,
7311,
7108,
7184,
7056,
6956,
7006,
6874,
6803,
6818,
6667,
6633,
6576,
6631,
6517,
6647,
6357,
6460,
6430,
6442,
6384,
6168,
6296,
6219,
6131,
6035,
6070,
6086,
5873,
5889,
5817,
5881,
5888,
5814,
5986,
5904,
5905,
5822,
5662,
5654,
5532,
5539,
5442,
5371,
5272,
5312,
5307,
5228,
5139,
5172,
5058,
5223,
5155,
5028,
4914,
4902,
5008,
4929,
4846,
4966,
4885,
4823,
4764,
4621,
4666,
4824,
4663,
4723,
4725,
4647,
4684,
4720,
4945,
5428,
7156,
10591,
17288,
27917,
42032,
56894,
67871,
71158,
65597,
52487,
37133,
23423,
13870,
8281,
5676,
4401,
4050,
3833,
3740,
3611,
3631,
3504,
3548,
3543,
3469,
3500,
3463,
3584,
3560,
3498,
3433,
3601,
3350,
3320,
3205,
3314,
3307,
3229,
3173,
3107,
3137,
3078,
3169,
3159,
3077,
3138,
3571,
3961,
4881,
6342,
8019,
10095,
11638,
11923,
11308,
9608,
7675,
6117,
4741,
4162,
3594,
3110,
2793,
2575,
2372,
2356,
2264,
2227,
2284,
2168,
2204,
2150,
2154,
2059,
2155,
2078,
2022,
2023,
1954,
1995,
1957,
1912,
2001,
1874,
1822,
1857,
1888,
1824,
1767,
1791,
1796,
1727,
1730,
1752,
1769,
1703,
1616,
1620,
1641,
1647,
1641,
1637,
1577,
1551,
1591,
1486,
1502,
1490,
1453,
1481,
1485,
1386,
1415,
1388,
1410,
1426,
1454,
1387,
1386,
1365,
1322,
1287,
1320,
1223,
1210,
1204,
1182,
1120,
1147,
1147,
1168,
1124,
1053,
1137,
1068,
1072,
1086,
1023,
1041,
1015,
940,
976,
1011,
944,
915,
960,
960,
890,
843,
870,
888,
853,
901,
823,
793,
773,
794,
819,
735,
771,
764,
737,
803,
738,
727,
659,
656,
669,
655,
677,
622,
636,
620,
577,
622,
608,
577,
590,
518,
539,
529,
524,
516,
503,
484,
559,
449,
496,
494,
470,
440,
463,
427,
407,
432,
394,
388,
360,
418,
361,
380,
346,
345,
333,
353,
377,
335,
306,
328,
317,
331,
287,
302,
295,
293,
253,
261,
274,
215,
240,
219,
224,
225,
221,
206,
188,
195,
199,
169,
168,
180,
175,
175,
124,
151,
131,
154,
164,
134,
138,
112,
107,
109,
109,
93,
104,
71,
83,
106,
80,
83,
62,
76,
53,
61,
61,
44,
50,
56,
35,
29,
33,
35,
25,
21,
11,
18,
12,
4,
10,
4,
5,
5,
4,
4,
4,
2,
7,
3,
7,
4,
6,
1,
4,
5,
8,
8,
6,
4,
5,
5,
5,
4,
5,
8,
0,
5,
0,
4,
4,
5,
1,
4,
4,
1,
5,
3,
2,
2,
3,
3,
5,
2,
3,
2,
2,
3,
3,
3,
1,
2,
2,
2,
1,
3,
1,
4,
4,
3,
1,
0,
1,
1,
3,
1,
0,
2,
0,
2,
2,
1,
2,
1,
5,
2,
1,
2,
2,
2,
0,
3,
1,
4,
1,
2,
1,
3,
3,
1,
2,
2,
2,
2,
1,
1,
0,
1,
0,
0,
0,
0,
0,
2,
0,
0,
1,
6,
1,
4,
2,
1,
0,
0,
3,
1,
1,
1,
1,
0,
0,
1,
0,
1,
3,
1,
0,
3,
1,
2,
2,
1,
1,
2,
5,
4,
3,
1,
0,
2,
0,
2,
0,
1,
0,
1,
0,
0,
0,
2,
2,
0,
0,
0,
1,
0,
0,
0,
0,
1,
2,
1,
2,
0,
0,
1,
0,
0,
0,
1,
1,
0,
0,
1,
1,
1,
0,
1,
1,
0,
2,
0,
0,
1,
0,
0,
0,
1,
1,
1,
0,
0,
0,
1,
0,
0,
0,
0,
0,
1,
0,
0,
1,
0,
1,
0,
0,
1,
1,
1,
0,
0,
1,
0,
0,
0,
0,
0,
0,
0,
0,
0,
0,
0,
0,
1,
0,
1,
0,
0,
0,
0,
0,
0,
0,
0,
0,
0,
0,
0,
0,
0,
0,
1,
1,
0,
1,
0,
0,
1,
0,
0,
0,
1,
0,
0,
0,
0,
0,
0,
0,
0,
0,
0,
0,
0,
0,
0,
0,
0,
0,
0,
0,
0,
0,
0,
0,
0,
0,
0,
0,
0,
0,
0,
0,
1,
0,
0,
1,
0,
1,
0,
0,
0,
0,
0,
1,
0,
0,
0,
2,
0,
0,
0,
0,
0,
0,
0,
0,
0,
0,
0,
0,
0,
0,
0,
0,
0,
0,
0,
0,
0,
0,
0,
0,
0,
0,
0,
0,
0,
0,
0,
0,
0,
0,
0,
0,
0,
0,
0,
0,
0,
0,
0,
0,
0,
0,
0,
0,
0,
0,
0,
0,
0,
0,
0,
0,
0,
0,
0,
0,
0,
0,
0,
0,
0,
0,
0,
0,
0,
0,
0,
0,
0,
0,
0,
0,
0,
0,
0,
0,
0,
0,
0,
0,
0,
0,
0,
0,
0,
0,
0,
0,
0,
0,
0,
0,
0,
0,
0,
0,
0,
0,
0,
0,
0,
0,
0,
0,
0,
0,
0,
0,
0,
0,
0,
0,
0,
0,
0,
0,
0,
0,
0,
0,
0,
0,
0,
0,
0,
0,
0,
0,
0,
0,
0,
0,
0,
0,
0,
0,
0,
0,
0,
0,
0,
0,
0,
0,
0,
0,
0,
0,
0,
0,
0,
0,
0,
0,
0,
0,
0,
0,
0,
0,
0,
0,
0,
0,
0,
0,
0,
0,
0,
0,
0,
0,
0,
0,
0,
0,
0,
0,
0,
0,
0,
0,
0,
0,
0,
0,
0,
0,
0,
0,
0,
0,
0,
0,
0,
0,
0,
0,
0,
0,
0,
0,
0,
0,
0,
0,
0,
0,
0,
0,
0,
0,
0,
0,
0,
0,
0,
0,
0,
0,
0,
0,
0,
0,
0,
0,
0,
0,
0,
0,
0,
0,
0,
0,
0,
0,
0,
0,
0,
0,
0,
0,
0,
0,
0,
0,
0,
0,
0,
0,
0,
0,
0,
0,
0,
0,
0,
0,
0,
0,
0,
0,
0,
0,
0,
0,
0,
0,
0,
0,
0,
0,
0,
0,
0,
0,
0,
0,
0,
0,
0,
0,
0,
0,
0,
0,
0,
0,
0,
0,
0,
0,
0,
0,
0,
0,
0,
0,
0,
0,
0,
0,
0,
0,
0,
0,
0,
0,
0,
0,
0,
0,
0,
0,
0,
0,
0,
0,
0,
0,
0,
0,
0,
0,
0,
0,
0,
0,
0,
0,
0,
0,
0,
0,
0,
0,
0,
0,
0,
0,
0,
0,
0,
0,
0,
0,
0,
0,
0,
0,
0,
0,
0,
0,
0,
0,
0,
0,
0,
0,
0,
0,
0,
0,
0,
0,
0,
0,
0,
0,
0,
0,
0,
0,
0,
0,
0,
0,
0,
0,
0,
0,
0,
0,
0,
0,
0,
0,
0,
0,
0,
0,
0,
0,
0,
0,
0,
0,
0,
0,
0,
0,
#ENDOFDATA   :