File: NeXLParticle/Zeppelin/Standards/Mg std.msa
#FORMAT      : EMSA/MAS Spectral Data File
#VERSION     : 1.0
#TITLE       : Mg std
#DATE        : 11-OCT-2018
#TIME        : 00:04
#OWNER       : Unknown
#NPOINTS     : 4096
#NCOLUMNS    : 1
#XUNITS      : eV
#YUNITS      : counts
#DATATYPE    : Y
#XPERCHAN    : 9.99856
#OFFSET      : 1.63032
#BEAMKV      : 20
#SIGNALTYPE  : EDS
#ELEVANGLE   : 35
#AZIMANGLE   : 0
#LIVETIME    : 1149.05
#REALTIME    : 1784.69
#PROBECUR    : 0.97475
#TDEADLYR    : 0
#TACTLYR     : 0.045
#TALWIND     : 0.003
#CHOFFSET    : 0.0
#XLABEL      : Energy (eV)
#YLABEL      : Counts
#EDSDET      : SDUTW
##SPECIMEN   : Mg std
##D2STDCMP   : Mg,(Mg:100.0),1.74
##DET_HASH   : 97086dfe-e5c2-9c77-3984-1d0b14bbbf41
##CALIB_HASH : 1a36e884-c26d-3547-51b1-d0bb2efdf95a
##WORKING    : 17.0 mm
##SAMPLE     : <BulkSample id="1">\n<mOrientation id="2">\n<double>0.0</double>\n<double>0.0</double>\n<double>-1.0</double>\n</mOrientation>\n</BulkSample>
#SPECTRUM    :
201023,
40926,
2543,
362,
172,
234,
701,
2813,
12865,
24629,
15129,
8512,
8986,
10116,
11696,
17448,
39566,
78654,
64031,
28213,
21657,
25934,
33849,
35315,
32154,
32977,
35046,
37565,
40272,
42648,
45439,
48725,
52634,
57931,
64845,
73712,
86611,
104377,
142441,
412643,
2177983,
6583630,
8389014,
4451829,
1072639,
154420,
28484,
13398,
11004,
10993,
11407,
10872,
10339,
10217,
10374,
10740,
11553,
12331,
13874,
14292,
13725,
13031,
12469,
12370,
12767,
12960,
13276,
13508,
13705,
13851,
13972,
13877,
14317,
14326,
14497,
14478,
15139,
15300,
15467,
15893,
17021,
23253,
39935,
62863,
67458,
48237,
27355,
17640,
15282,
14467,
14428,
13993,
14210,
13894,
14092,
14070,
14076,
13990,
13936,
13710,
13710,
13947,
13589,
13618,
13456,
13687,
13602,
13379,
13233,
13212,
13312,
13184,
13008,
12781,
12840,
12849,
12714,
12522,
12595,
12435,
12443,
12361,
12111,
12440,
12310,
12319,
12240,
12032,
11561,
11569,
11472,
11554,
11240,
11433,
11227,
10955,
11009,
10749,
10799,
10800,
10638,
10790,
10605,
10544,
10275,
10308,
10182,
10053,
9962,
9995,
9874,
9607,
9782,
9642,
9487,
9671,
9403,
9336,
9144,
9210,
9081,
9107,
9068,
9058,
8798,
8883,
8778,
8598,
8431,
8482,
8197,
8446,
8209,
8228,
8115,
8156,
7948,
7926,
7971,
7847,
8162,
7883,
7766,
7821,
7447,
7382,
7302,
7426,
7292,
7105,
7184,
7130,
7053,
7015,
7257,
7357,
7385,
7449,
7221,
7041,
6596,
6699,
6627,
6548,
6256,
6419,
6362,
6259,
6411,
5979,
6360,
6114,
6318,
6498,
6382,
6280,
6072,
5967,
5873,
5922,
5571,
5674,
5620,
5473,
5433,
5405,
5532,
5369,
5255,
5307,
5230,
5262,
5241,
5133,
5140,
4979,
5052,
4887,
5018,
4901,
4820,
4858,
4755,
4640,
4756,
4561,
4698,
4725,
4635,
4626,
4524,
4432,
4508,
4387,
4411,
4335,
4272,
4342,
4171,
4185,
4191,
4115,
4150,
4228,
3998,
4103,
4040,
3890,
3924,
3981,
3810,
3863,
3908,
3863,
3785,
3842,
3728,
3593,
3754,
3652,
3625,
3625,
3478,
3568,
3537,
3391,
3487,
3382,
3511,
3394,
3375,
3343,
3348,
3269,
3292,
3254,
3201,
3220,
3150,
3156,
3134,
3139,
3069,
3080,
3091,
2973,
3088,
2980,
2851,
2964,
2947,
2869,
2868,
2885,
2787,
2706,
2737,
2781,
2691,
2594,
2712,
2628,
2639,
2556,
2554,
2600,
2584,
2594,
2466,
2585,
2470,
2507,
2398,
2451,
2438,
2400,
2267,
2378,
2282,
2368,
2357,
2257,
2265,
2213,
2262,
2170,
2234,
2180,
2155,
2128,
2105,
2164,
2251,
2105,
2091,
2031,
2091,
2021,
2067,
1915,
1915,
1934,
1911,
1929,
1866,
1787,
1865,
1836,
1765,
1809,
1858,
1741,
1779,
1755,
1852,
1720,
1635,
1739,
1694,
1706,
1611,
1559,
1611,
1663,
1653,
1667,
1565,
1551,
1564,
1525,
1569,
1511,
1416,
1546,
1484,
1447,
1407,
1454,
1422,
1383,
1351,
1427,
1400,
1397,
1332,
1328,
1340,
1243,
1244,
1304,
1216,
1265,
1225,
1179,
1260,
1196,
1150,
1245,
1198,
1205,
1198,
1185,
1176,
1158,
1144,
1117,
1075,
1070,
1082,
1051,
1035,
1028,
1004,
1044,
972,
1006,
982,
929,
961,
954,
950,
937,
898,
918,
894,
878,
890,
854,
823,
844,
904,
829,
814,
850,
839,
828,
780,
759,
751,
787,
743,
732,
771,
744,
721,
709,
707,
732,
684,
684,
667,
675,
644,
645,
657,
638,
610,
621,
620,
603,
565,
592,
571,
569,
587,
568,
567,
529,
538,
530,
571,
530,
528,
479,
516,
484,
505,
529,
505,
436,
476,
471,
479,
481,
457,
464,
425,
412,
399,
444,
419,
394,
364,
382,
409,
384,
386,
356,
363,
357,
352,
379,
360,
349,
353,
346,
359,
330,
340,
327,
317,
315,
292,
301,
301,
284,
266,
283,
282,
262,
238,
262,
272,
281,
264,
243,
281,
230,
232,
240,
254,
220,
213,
203,
228,
205,
207,
208,
211,
197,
189,
177,
201,
193,
181,
176,
192,
183,
161,
175,
160,
160,
169,
177,
138,
167,
148,
152,
139,
151,
139,
127,
131,
129,
126,
118,
134,
134,
106,
116,
114,
110,
102,
96,
101,
105,
97,
101,
97,
95,
107,
86,
104,
92,
66,
86,
91,
76,
63,
73,
61,
65,
61,
56,
81,
58,
66,
46,
62,
47,
60,
42,
47,
56,
57,
46,
38,
52,
55,
35,
33,
48,
31,
31,
41,
26,
33,
38,
33,
18,
20,
26,
27,
31,
19,
25,
21,
21,
17,
20,
19,
23,
12,
10,
15,
18,
6,
8,
5,
8,
12,
6,
4,
2,
6,
6,
4,
0,
2,
3,
1,
0,
1,
2,
0,
0,
1,
0,
0,
1,
0,
1,
0,
0,
0,
1,
0,
0,
0,
0,
1,
2,
0,
1,
0,
0,
1,
1,
1,
1,
0,
1,
0,
0,
0,
0,
0,
0,
0,
0,
0,
0,
0,
0,
0,
0,
1,
0,
0,
2,
1,
0,
1,
0,
0,
0,
0,
0,
0,
0,
0,
0,
0,
0,
0,
0,
1,
0,
1,
0,
1,
0,
0,
0,
0,
0,
0,
0,
0,
0,
0,
0,
0,
0,
1,
0,
0,
0,
0,
0,
0,
0,
0,
0,
0,
0,
0,
0,
0,
0,
1,
0,
0,
0,
0,
0,
0,
0,
0,
0,
0,
0,
0,
0,
0,
0,
0,
0,
0,
0,
0,
0,
0,
0,
0,
0,
0,
1,
0,
0,
0,
0,
0,
0,
0,
0,
0,
0,
0,
0,
0,
0,
1,
1,
0,
0,
0,
0,
0,
0,
0,
0,
0,
0,
0,
0,
0,
0,
0,
0,
0,
0,
0,
0,
0,
0,
0,
0,
0,
0,
0,
2,
0,
0,
0,
0,
0,
0,
0,
0,
0,
0,
0,
0,
0,
0,
0,
0,
0,
0,
0,
0,
0,
0,
0,
0,
0,
0,
0,
0,
0,
0,
0,
0,
0,
0,
0,
0,
0,
0,
0,
0,
0,
0,
0,
0,
0,
0,
0,
0,
0,
0,
0,
0,
0,
0,
0,
0,
0,
0,
0,
0,
0,
0,
0,
0,
0,
0,
0,
0,
0,
0,
0,
0,
0,
0,
0,
0,
0,
0,
0,
0,
0,
0,
0,
0,
0,
0,
0,
0,
0,
0,
0,
0,
0,
0,
0,
0,
0,
0,
0,
0,
0,
0,
0,
0,
0,
0,
0,
0,
0,
0,
0,
0,
0,
0,
0,
0,
0,
0,
0,
0,
0,
0,
0,
0,
0,
0,
0,
0,
0,
0,
0,
0,
0,
0,
0,
0,
0,
0,
0,
0,
0,
0,
0,
0,
0,
0,
0,
0,
0,
0,
0,
0,
0,
0,
0,
0,
0,
0,
0,
0,
0,
0,
0,
0,
0,
0,
0,
0,
0,
0,
0,
0,
0,
0,
0,
0,
0,
0,
0,
0,
0,
0,
0,
0,
0,
0,
0,
0,
0,
0,
0,
0,
0,
0,
0,
0,
0,
0,
0,
0,
0,
0,
0,
0,
0,
0,
0,
0,
0,
0,
0,
0,
0,
0,
0,
0,
0,
0,
0,
0,
0,
0,
0,
0,
0,
0,
0,
0,
0,
0,
0,
0,
0,
0,
0,
0,
0,
0,
0,
0,
0,
0,
0,
0,
0,
0,
0,
0,
0,
0,
0,
0,
0,
0,
0,
0,
0,
0,
0,
0,
0,
0,
0,
0,
0,
0,
0,
0,
0,
0,
0,
0,
0,
0,
0,
0,
0,
0,
0,
0,
0,
0,
0,
0,
0,
0,
0,
0,
0,
0,
0,
0,
0,
0,
0,
0,
0,
0,
0,
0,
0,
0,
0,
0,
0,
0,
0,
0,
0,
0,
0,
0,
0,
0,
0,
0,
0,
0,
0,
0,
0,
0,
0,
0,
0,
0,
0,
0,
0,
0,
0,
0,
0,
0,
0,
0,
0,
0,
0,
0,
0,
0,
0,
0,
0,
0,
0,
0,
0,
0,
0,
0,
0,
0,
0,
0,
0,
0,
0,
0,
0,
0,
0,
0,
0,
0,
0,
0,
0,
0,
0,
0,
0,
0,
0,
0,
0,
0,
0,
0,
0,
0,
0,
0,
0,
0,
0,
0,
0,
0,
0,
0,
0,
0,
0,
0,
0,
0,
0,
0,
0,
0,
0,
0,
0,
0,
0,
0,
0,
0,
0,
0,
0,
0,
0,
0,
0,
0,
0,
0,
0,
0,
0,
0,
0,
0,
0,
0,
0,
0,
0,
0,
0,
0,
0,
0,
0,
0,
0,
0,
0,
0,
0,
0,
0,
0,
0,
0,
0,
0,
0,
0,
0,
0,
0,
0,
0,
0,
0,
0,
0,
0,
0,
0,
0,
0,
0,
0,
0,
0,
0,
0,
0,
0,
0,
0,
0,
0,
0,
0,
0,
0,
0,
0,
0,
0,
0,
0,
0,
0,
0,
0,
0,
0,
0,
0,
0,
0,
0,
0,
0,
0,
0,
0,
0,
0,
0,
0,
0,
1,
0,
0,
0,
0,
0,
0,
0,
0,
0,
0,
0,
0,
0,
0,
#ENDOFDATA   :