File: NeXLParticle/Zeppelin/Standards/Mn std.msa
#FORMAT      : EMSA/MAS Spectral Data File
#VERSION     : 1.0
#TITLE       : Mn std
#DATE        : 11-OCT-2018
#TIME        : 01:28
#OWNER       : Unknown
#NPOINTS     : 4096
#NCOLUMNS    : 1
#XUNITS      : eV
#YUNITS      : counts
#DATATYPE    : Y
#XPERCHAN    : 9.99856
#OFFSET      : 1.63032
#BEAMKV      : 20
#SIGNALTYPE  : EDS
#ELEVANGLE   : 35
#AZIMANGLE   : 0
#LIVETIME    : 1165.98
#REALTIME    : 1531.02
#PROBECUR    : 0.97528
#TDEADLYR    : 0
#TACTLYR     : 0.045
#TALWIND     : 0.003
#CHOFFSET    : 0.0
#XLABEL      : Energy (eV)
#YLABEL      : Counts
#EDSDET      : SDUTW
##SPECIMEN   : Mn std
##D2STDCMP   : Mn,(Mn:100.0),5.0
##DET_HASH   : 97086dfe-e5c2-9c77-3984-1d0b14bbbf41
##CALIB_HASH : 1a36e884-c26d-3547-51b1-d0bb2efdf95a
##WORKING    : 17.0 mm
##SAMPLE     : <BulkSample id="1">\n<mOrientation id="2">\n<double>0.0</double>\n<double>0.0</double>\n<double>-1.0</double>\n</mOrientation>\n</BulkSample>
#SPECTRUM    :
195532,
42588,
3437,
566,
177,
198,
731,
3402,
14823,
26557,
16895,
11393,
13987,
17571,
21956,
31246,
58321,
137852,
246845,
251811,
344103,
511620,
300422,
73257,
20933,
12691,
10659,
10550,
11344,
11977,
13011,
13734,
14556,
15917,
17134,
18085,
18773,
19411,
20372,
21121,
22660,
23357,
24290,
25092,
25656,
26046,
26949,
27478,
28985,
30005,
31094,
30167,
29581,
29202,
29607,
30577,
31921,
33792,
34677,
34624,
34150,
33002,
32058,
32107,
32065,
32623,
32996,
33811,
33946,
34093,
33997,
34082,
34519,
34299,
34620,
34645,
35095,
35505,
34992,
34427,
34434,
34201,
34015,
34114,
34160,
34208,
34516,
34708,
35032,
33967,
33308,
33376,
32580,
32977,
32914,
32560,
32241,
32309,
31914,
31859,
31794,
31523,
31296,
31034,
30931,
30474,
30247,
30231,
29922,
29848,
29799,
29421,
29235,
29114,
28658,
28552,
28412,
28116,
27856,
28012,
27529,
27561,
27537,
27351,
26809,
26815,
26660,
26324,
26182,
26089,
25386,
25590,
25309,
25099,
25215,
25990,
27025,
29080,
30367,
30152,
27853,
25442,
24067,
23459,
23423,
22498,
22798,
22519,
22219,
22261,
22222,
21957,
21880,
21518,
21558,
21716,
21843,
21641,
21964,
21441,
21143,
21034,
20696,
20408,
20460,
20439,
20049,
20078,
19979,
19896,
19762,
19423,
19595,
18888,
18765,
18434,
18495,
18439,
18482,
18581,
18672,
18956,
18518,
18345,
18395,
18751,
18896,
19412,
19820,
21687,
25337,
39170,
91038,
245155,
567903,
1030382,
1412986,
1447647,
1114154,
645767,
288393,
106594,
40026,
21627,
17300,
16328,
16003,
16063,
16522,
17116,
19126,
23488,
35825,
62183,
108155,
162646,
196293,
187914,
141109,
85177,
44276,
22474,
13579,
10663,
9787,
9694,
9553,
9464,
9492,
9559,
9477,
9513,
9503,
9776,
9517,
9766,
9696,
9562,
9333,
9416,
9394,
9105,
9063,
8995,
9121,
9058,
8942,
8987,
9059,
9135,
9024,
8900,
8731,
8677,
8696,
8642,
8454,
8547,
8477,
8338,
8327,
8277,
8325,
8285,
8227,
8214,
8174,
8016,
8218,
8160,
8046,
8067,
8028,
7967,
7704,
7838,
7789,
7722,
7721,
7646,
7554,
7735,
7697,
7550,
7418,
7290,
7359,
7356,
7324,
7354,
7348,
7195,
7119,
7157,
7181,
7074,
7051,
7130,
6843,
6808,
6879,
6834,
6789,
6717,
6671,
6704,
6724,
6598,
6715,
6473,
6468,
6560,
6357,
6317,
6466,
6250,
6261,
6277,
6123,
6089,
6051,
6001,
6010,
5919,
5969,
5850,
5910,
5889,
5767,
5777,
5694,
5731,
5639,
5651,
5586,
5667,
5499,
5449,
5400,
5391,
5401,
5267,
5260,
5258,
5317,
5237,
5097,
5259,
5272,
5040,
5066,
5146,
5145,
5205,
5024,
5045,
4977,
4830,
4846,
4699,
4804,
4559,
4585,
4585,
4583,
4416,
4339,
4444,
4400,
4409,
4490,
4327,
4391,
4300,
4351,
4105,
4196,
4215,
4086,
4039,
4096,
4128,
3977,
4019,
4106,
3883,
3812,
4066,
3929,
4198,
4426,
4879,
5106,
5276,
5094,
4806,
4473,
4186,
3835,
3608,
3592,
3479,
3381,
3350,
3441,
3244,
3390,
3307,
3346,
3364,
3399,
3457,
3618,
3480,
3535,
3438,
3300,
3178,
3096,
3011,
3031,
3059,
3025,
2913,
2948,
2879,
2961,
2729,
2733,
2673,
2783,
2696,
2719,
2672,
2704,
2641,
2613,
2521,
2550,
2443,
2446,
2462,
2454,
2458,
2467,
2398,
2403,
2313,
2235,
2276,
2246,
2255,
2148,
2172,
2169,
2179,
2143,
2116,
2041,
2074,
2022,
2014,
1999,
1963,
1943,
1904,
1895,
1850,
1858,
1851,
1821,
1820,
1885,
1771,
1829,
1728,
1706,
1722,
1646,
1698,
1662,
1714,
1675,
1611,
1630,
1583,
1521,
1548,
1527,
1521,
1462,
1523,
1395,
1436,
1466,
1461,
1374,
1436,
1396,
1378,
1311,
1408,
1314,
1280,
1247,
1193,
1295,
1202,
1174,
1193,
1271,
1186,
1179,
1021,
1142,
1106,
1117,
1131,
1057,
1085,
1103,
1013,
1048,
991,
1021,
963,
931,
950,
1006,
978,
938,
948,
938,
899,
898,
883,
871,
839,
846,
886,
815,
805,
776,
777,
789,
699,
760,
765,
755,
665,
721,
658,
688,
666,
656,
662,
628,
664,
645,
544,
555,
593,
613,
539,
554,
573,
535,
521,
537,
486,
466,
518,
535,
511,
438,
449,
450,
455,
449,
440,
456,
435,
440,
416,
402,
399,
402,
340,
372,
370,
366,
350,
337,
332,
305,
332,
333,
309,
304,
311,
277,
306,
270,
290,
299,
275,
227,
229,
244,
229,
256,
218,
213,
221,
201,
196,
206,
215,
183,
203,
185,
175,
182,
167,
159,
150,
159,
155,
110,
146,
125,
155,
135,
121,
130,
107,
107,
104,
99,
87,
90,
96,
114,
81,
79,
82,
56,
82,
72,
61,
68,
64,
70,
58,
43,
48,
40,
37,
36,
28,
27,
16,
23,
20,
16,
21,
13,
9,
2,
6,
9,
6,
9,
8,
6,
7,
3,
6,
1,
4,
3,
3,
2,
2,
7,
5,
3,
5,
3,
2,
1,
2,
3,
6,
3,
5,
2,
2,
5,
8,
4,
2,
2,
3,
3,
2,
5,
2,
5,
1,
4,
4,
4,
3,
4,
1,
0,
2,
4,
3,
3,
1,
1,
2,
2,
2,
2,
2,
2,
1,
2,
1,
1,
1,
1,
1,
2,
2,
8,
1,
0,
1,
3,
6,
1,
4,
0,
2,
2,
0,
1,
2,
0,
1,
0,
2,
1,
1,
2,
1,
1,
0,
1,
0,
2,
2,
1,
0,
4,
2,
0,
1,
1,
1,
1,
1,
2,
0,
1,
1,
1,
2,
0,
2,
1,
0,
0,
0,
0,
0,
1,
0,
0,
0,
1,
1,
0,
5,
1,
2,
1,
0,
1,
0,
0,
0,
1,
3,
1,
1,
3,
0,
0,
0,
2,
0,
0,
0,
0,
0,
1,
0,
2,
2,
1,
0,
0,
1,
0,
0,
0,
0,
0,
0,
0,
1,
0,
0,
0,
0,
0,
0,
1,
0,
0,
0,
0,
1,
1,
1,
0,
0,
1,
0,
0,
0,
0,
0,
0,
0,
0,
0,
0,
0,
0,
0,
0,
0,
0,
1,
0,
0,
1,
0,
0,
0,
0,
0,
0,
0,
0,
0,
0,
0,
0,
0,
0,
0,
0,
0,
0,
0,
0,
0,
0,
0,
0,
0,
0,
0,
0,
0,
0,
0,
0,
0,
0,
0,
0,
0,
0,
0,
2,
0,
0,
0,
0,
0,
0,
0,
0,
0,
0,
0,
0,
0,
0,
0,
0,
0,
0,
0,
0,
0,
0,
0,
0,
0,
0,
0,
0,
0,
0,
1,
2,
0,
0,
0,
0,
0,
0,
0,
0,
0,
0,
0,
0,
0,
0,
0,
0,
0,
0,
0,
0,
0,
0,
0,
0,
0,
0,
0,
0,
0,
0,
0,
1,
0,
0,
0,
0,
0,
0,
0,
0,
0,
0,
0,
0,
0,
0,
0,
0,
0,
0,
0,
0,
0,
0,
0,
0,
0,
0,
0,
0,
0,
0,
0,
0,
0,
0,
0,
0,
0,
0,
0,
0,
0,
0,
0,
0,
0,
0,
0,
0,
0,
0,
0,
0,
0,
0,
0,
0,
0,
0,
0,
0,
0,
0,
0,
0,
0,
0,
0,
0,
0,
0,
0,
0,
0,
0,
0,
0,
0,
0,
0,
0,
0,
0,
0,
0,
0,
0,
0,
0,
0,
0,
0,
0,
0,
0,
0,
0,
0,
0,
0,
0,
0,
0,
0,
0,
0,
0,
0,
0,
0,
0,
0,
0,
0,
0,
0,
0,
0,
0,
0,
0,
0,
0,
0,
0,
0,
0,
0,
0,
0,
0,
0,
0,
0,
0,
0,
0,
0,
0,
0,
0,
0,
0,
0,
0,
0,
0,
0,
0,
0,
0,
0,
0,
0,
0,
0,
0,
0,
0,
0,
0,
0,
0,
0,
0,
0,
0,
0,
0,
0,
0,
0,
0,
0,
0,
0,
0,
0,
0,
0,
0,
0,
0,
0,
0,
0,
0,
0,
0,
0,
0,
0,
0,
0,
0,
0,
0,
0,
0,
0,
0,
0,
0,
0,
0,
0,
0,
0,
0,
0,
0,
0,
0,
0,
0,
0,
0,
0,
0,
0,
0,
0,
0,
0,
0,
0,
0,
0,
0,
0,
0,
0,
0,
0,
0,
0,
0,
0,
0,
0,
0,
0,
0,
0,
0,
0,
0,
0,
0,
0,
0,
0,
0,
0,
0,
0,
0,
0,
0,
0,
0,
0,
0,
0,
0,
0,
0,
0,
0,
0,
0,
0,
0,
0,
0,
0,
0,
0,
0,
0,
0,
0,
0,
0,
0,
0,
0,
0,
0,
0,
0,
0,
0,
0,
0,
0,
0,
0,
0,
0,
0,
0,
0,
0,
0,
0,
0,
0,
0,
0,
0,
0,
0,
0,
0,
0,
0,
0,
0,
0,
0,
0,
0,
0,
0,
0,
0,
0,
0,
0,
0,
0,
0,
0,
0,
0,
0,
0,
0,
0,
0,
0,
0,
0,
0,
0,
0,
0,
0,
0,
0,
0,
0,
0,
0,
0,
0,
0,
0,
0,
0,
0,
0,
0,
0,
0,
0,
0,
0,
0,
0,
0,
0,
0,
0,
0,
0,
0,
0,
0,
0,
0,
0,
0,
0,
0,
0,
0,
0,
0,
#ENDOFDATA   :