File: NeXLParticle/Zeppelin/Standards/Na std.msa
#FORMAT      : EMSA/MAS Spectral Data File
#VERSION     : 1.0
#TITLE       : Trimmed[NaF std,352 eV,814 eV]
#DATE        : 11-OCT-2018
#TIME        : 00:11
#OWNER       : Unknown
#NPOINTS     : 4096
#NCOLUMNS    : 1
#XUNITS      : eV
#YUNITS      : counts
#DATATYPE    : Y
#XPERCHAN    : 9.99856
#OFFSET      : 1.63032
#BEAMKV      : 20
#SIGNALTYPE  : EDS
#ELEVANGLE   : 35
#AZIMANGLE   : 0
#LIVETIME    : 1158.62
#REALTIME    : 1458.43
#PROBECUR    : 0.97493
#TDEADLYR    : 0
#TACTLYR     : 0.045
#TALWIND     : 0.003
#CHOFFSET    : 0.0
#XLABEL      : Energy (eV)
#YLABEL      : Counts
#EDSDET      : SDUTW
##SPECIMEN   : Trimmed[NaF std,352 eV,814 eV]
##D2STDCMP   : NaF,(F:45.2465),(Na:54.7535),5.0
##DET_HASH   : 97086dfe-e5c2-9c77-3984-1d0b14bbbf41
##CALIB_HASH : 1a36e884-c26d-3547-51b1-d0bb2efdf95a
##WORKING    : 17.0 mm
##SAMPLE     : <BulkSample id="1">\n<mOrientation id="2">\n<double>0.0</double>\n<double>0.0</double>\n<double>-1.0</double>\n</mOrientation>\n</BulkSample>
#SPECTRUM    :
202075,
39399,
2100,
307,
154,
218,
757,
3400,
16417,
31738,
18313,
9488,
9571.77,
9881.57,
10191.4,
10501.2,
10811,
11120.8,
11430.6,
11740.4,
12050.2,
12360,
12669.8,
12979.6,
13289.4,
13599.2,
13909.1,
14218.9,
15863,
19492,
25103,
36701,
102632,
528097,
1590455,
1879649,
845814,
158898,
23100,
10455,
9060,
9165,
9852,
11378,
14150,
16211,
14500,
12079,
11535,
12184,
12522,
12541,
12413,
12459,
13299,
15102,
19551,
23854,
22508,
17746,
15004,
13881,
13649,
13315,
13537,
13826,
13960,
14542,
15567,
17374,
17080,
15786,
14629,
14426,
14250,
14767,
14954,
15440,
15009,
14864,
14685,
14485,
14410,
14336,
14305,
15196,
16908,
18878,
19088,
16699,
14757,
14130,
14092,
14238,
13938,
14003,
13452,
13526,
13325,
13420,
13142,
13055,
13040,
12673,
12739,
12739,
12794,
12515,
12134,
12397,
12249,
12297,
12071,
11969,
11912,
11593,
11726,
11453,
11374,
11310,
11277,
11026,
11018,
11333,
10946,
10729,
10697,
10507,
10271,
10239,
10288,
10174,
10025,
9993,
9928,
9708,
9777,
9522,
9426,
9397,
9332,
9216,
9196,
9085,
9014,
9000,
8756,
8611,
8455,
8626,
8493,
8454,
8288,
8441,
8195,
8125,
8020,
7982,
7836,
7697,
7826,
7663,
7718,
7665,
7514,
7547,
7297,
7216,
7233,
7136,
6899,
6857,
7032,
6927,
6879,
6770,
6682,
6672,
6647,
6688,
6556,
6686,
6539,
6352,
6240,
6195,
6249,
6006,
6024,
5938,
5920,
5965,
5839,
5961,
5678,
5723,
5693,
5740,
5613,
5548,
5463,
5498,
5485,
5375,
5252,
5344,
5095,
5191,
5115,
5210,
5129,
5245,
5229,
5428,
5295,
5155,
5084,
4876,
4713,
4843,
4658,
4642,
4636,
4527,
4519,
4603,
4371,
4458,
4341,
4368,
4298,
4226,
4247,
4219,
4231,
4243,
4154,
4139,
4018,
3983,
4059,
3908,
3908,
3816,
3777,
3951,
3764,
3724,
3884,
3751,
3777,
3646,
3685,
3643,
3509,
3567,
3545,
3454,
3478,
3441,
3460,
3362,
3315,
3331,
3364,
3240,
3200,
3289,
3344,
3253,
3179,
3170,
3180,
3083,
3110,
3068,
3112,
3040,
2989,
3120,
2922,
2982,
2938,
2921,
2871,
2890,
2786,
2890,
2811,
2768,
2779,
2716,
2753,
2655,
2711,
2638,
2585,
2640,
2524,
2578,
2582,
2519,
2524,
2519,
2469,
2367,
2416,
2412,
2380,
2371,
2315,
2409,
2296,
2280,
2231,
2297,
2202,
2244,
2175,
2197,
2179,
2252,
2167,
2171,
2167,
2072,
2111,
2059,
2096,
2054,
1973,
1937,
2008,
1963,
1883,
2026,
1936,
1826,
1851,
1899,
1911,
1843,
1787,
1819,
1830,
1830,
1753,
1799,
1749,
1766,
1760,
1717,
1805,
1720,
1649,
1727,
1662,
1625,
1598,
1613,
1515,
1606,
1523,
1552,
1577,
1519,
1539,
1530,
1513,
1471,
1443,
1480,
1435,
1443,
1466,
1394,
1430,
1362,
1360,
1360,
1361,
1275,
1285,
1328,
1263,
1252,
1353,
1264,
1284,
1317,
1207,
1199,
1215,
1213,
1178,
1173,
1185,
1181,
1107,
1139,
1097,
1024,
1128,
1057,
1103,
1054,
1072,
1068,
1045,
1003,
1004,
983,
1014,
1004,
1015,
954,
963,
961,
916,
951,
1015,
991,
962,
971,
915,
891,
913,
812,
854,
848,
859,
868,
807,
829,
828,
766,
828,
812,
746,
778,
727,
727,
721,
693,
752,
707,
682,
737,
689,
693,
654,
682,
701,
647,
629,
626,
652,
607,
618,
595,
600,
581,
571,
586,
545,
562,
565,
574,
567,
574,
556,
544,
510,
534,
540,
509,
497,
509,
497,
482,
474,
466,
468,
446,
427,
444,
464,
442,
414,
406,
438,
433,
397,
423,
403,
383,
389,
401,
394,
378,
378,
367,
403,
378,
366,
357,
353,
370,
323,
318,
305,
317,
350,
315,
316,
317,
294,
307,
298,
301,
282,
323,
293,
272,
277,
277,
276,
254,
243,
242,
223,
235,
264,
216,
204,
235,
214,
214,
233,
214,
209,
205,
233,
208,
198,
199,
187,
185,
165,
188,
190,
172,
183,
169,
173,
163,
142,
159,
179,
148,
154,
175,
158,
149,
134,
150,
142,
153,
151,
136,
111,
124,
139,
128,
120,
118,
109,
103,
125,
109,
122,
100,
88,
115,
97,
98,
94,
96,
79,
112,
99,
75,
66,
89,
70,
83,
85,
68,
84,
63,
71,
76,
80,
61,
79,
82,
69,
57,
47,
40,
50,
36,
45,
54,
52,
60,
51,
43,
45,
47,
44,
45,
40,
36,
39,
41,
39,
39,
27,
27,
35,
35,
31,
30,
29,
22,
22,
26,
15,
21,
20,
14,
19,
13,
12,
14,
17,
5,
15,
11,
10,
13,
8,
14,
5,
7,
6,
6,
8,
6,
7,
3,
5,
4,
3,
3,
0,
1,
1,
0,
1,
1,
1,
0,
0,
3,
1,
1,
2,
0,
0,
0,
0,
0,
1,
0,
0,
0,
1,
0,
0,
0,
0,
0,
1,
1,
0,
1,
0,
0,
0,
0,
0,
0,
0,
0,
0,
0,
0,
0,
0,
0,
0,
0,
0,
0,
0,
0,
0,
0,
1,
0,
0,
0,
0,
0,
0,
0,
0,
0,
0,
0,
0,
1,
0,
0,
0,
0,
0,
0,
0,
0,
0,
1,
0,
1,
0,
0,
0,
0,
0,
0,
0,
0,
0,
0,
0,
0,
0,
0,
0,
0,
0,
0,
0,
0,
0,
0,
0,
0,
0,
0,
0,
0,
0,
0,
0,
0,
0,
0,
0,
0,
0,
0,
0,
0,
0,
0,
0,
0,
0,
0,
0,
0,
0,
0,
0,
0,
0,
1,
0,
0,
0,
0,
0,
0,
0,
0,
0,
0,
0,
0,
1,
0,
0,
0,
0,
0,
0,
0,
0,
0,
0,
0,
0,
0,
0,
0,
0,
0,
0,
0,
0,
0,
0,
0,
0,
0,
0,
0,
0,
0,
0,
0,
0,
0,
0,
0,
0,
0,
0,
0,
0,
0,
0,
0,
0,
0,
0,
0,
0,
0,
0,
0,
0,
0,
0,
0,
0,
0,
0,
0,
0,
0,
0,
0,
0,
1,
0,
0,
0,
0,
0,
0,
0,
0,
0,
0,
0,
0,
0,
0,
0,
0,
0,
0,
0,
0,
0,
0,
0,
0,
0,
0,
0,
0,
0,
0,
0,
0,
0,
0,
0,
0,
0,
0,
0,
0,
0,
0,
0,
0,
0,
0,
0,
0,
0,
0,
0,
0,
0,
0,
0,
0,
0,
0,
0,
1,
0,
0,
0,
0,
0,
0,
0,
0,
0,
0,
0,
0,
0,
0,
0,
0,
0,
0,
0,
0,
0,
0,
0,
0,
0,
0,
0,
0,
0,
0,
0,
0,
0,
0,
0,
0,
0,
0,
0,
0,
0,
0,
0,
0,
0,
0,
0,
0,
0,
0,
0,
0,
0,
0,
0,
0,
0,
0,
0,
0,
0,
0,
0,
0,
0,
0,
0,
0,
0,
0,
0,
0,
0,
0,
0,
0,
0,
0,
0,
0,
0,
0,
0,
0,
0,
0,
0,
0,
0,
0,
0,
0,
0,
0,
0,
0,
0,
0,
0,
0,
0,
0,
0,
0,
0,
0,
0,
0,
0,
0,
0,
0,
0,
0,
0,
0,
0,
0,
0,
0,
0,
0,
0,
0,
0,
0,
0,
0,
0,
0,
0,
0,
0,
0,
0,
0,
0,
0,
0,
0,
0,
0,
0,
0,
0,
0,
0,
0,
0,
0,
0,
0,
0,
0,
0,
0,
0,
0,
0,
0,
0,
0,
0,
0,
0,
0,
0,
0,
0,
0,
0,
0,
0,
0,
0,
0,
0,
0,
0,
0,
0,
0,
0,
0,
0,
0,
0,
0,
0,
0,
0,
0,
0,
0,
0,
0,
0,
0,
0,
0,
0,
0,
0,
0,
0,
0,
0,
0,
0,
0,
0,
0,
0,
0,
0,
0,
0,
0,
0,
0,
0,
0,
0,
0,
0,
0,
0,
0,
0,
0,
0,
0,
0,
0,
0,
0,
0,
0,
0,
0,
0,
0,
0,
0,
0,
0,
0,
0,
0,
0,
0,
0,
0,
0,
0,
0,
0,
0,
0,
0,
0,
0,
0,
0,
0,
0,
0,
0,
0,
0,
0,
0,
0,
0,
0,
0,
0,
0,
0,
0,
0,
0,
0,
0,
0,
0,
0,
0,
0,
0,
0,
0,
0,
0,
0,
0,
0,
0,
0,
0,
0,
0,
0,
0,
0,
0,
0,
0,
0,
0,
0,
0,
0,
0,
0,
0,
0,
0,
0,
0,
0,
0,
0,
0,
0,
0,
0,
0,
0,
0,
0,
0,
0,
0,
0,
0,
0,
0,
0,
0,
0,
0,
0,
0,
0,
0,
0,
0,
0,
0,
0,
0,
0,
0,
0,
0,
0,
0,
0,
0,
0,
0,
0,
0,
0,
0,
0,
0,
0,
0,
0,
0,
0,
0,
0,
0,
0,
0,
0,
0,
0,
0,
0,
0,
0,
0,
0,
0,
0,
0,
0,
0,
0,
0,
0,
0,
0,
0,
0,
0,
0,
0,
0,
0,
0,
0,
0,
0,
0,
0,
0,
0,
0,
0,
0,
0,
0,
0,
0,
0,
0,
0,
0,
0,
0,
0,
0,
0,
#ENDOFDATA   :