File: NeXLParticle/Zeppelin/Standards/Ni std.msa
#FORMAT      : EMSA/MAS Spectral Data File
#VERSION     : 1.0
#TITLE       : Ni std
#DATE        : 11-OCT-2018
#TIME        : 02:10
#OWNER       : Unknown
#NPOINTS     : 4096
#NCOLUMNS    : 1
#XUNITS      : eV
#YUNITS      : counts
#DATATYPE    : Y
#XPERCHAN    : 9.99856
#OFFSET      : 1.63032
#BEAMKV      : 20
#SIGNALTYPE  : EDS
#ELEVANGLE   : 35
#AZIMANGLE   : 0
#LIVETIME    : 1164.08
#REALTIME    : 1531.02
#PROBECUR    : 0.97258
#TDEADLYR    : 0
#TACTLYR     : 0.045
#TALWIND     : 0.003
#CHOFFSET    : 0.0
#XLABEL      : Energy (eV)
#YLABEL      : Counts
#EDSDET      : SDUTW
##SPECIMEN   : Ni std
##D2STDCMP   : Ni,(Ni:100.0),5.0
##DET_HASH   : 97086dfe-e5c2-9c77-3984-1d0b14bbbf41
##CALIB_HASH : 1a36e884-c26d-3547-51b1-d0bb2efdf95a
##WORKING    : 17.0 mm
##SAMPLE     : <BulkSample id="1">\n<mOrientation id="2">\n<double>0.0</double>\n<double>0.0</double>\n<double>-1.0</double>\n</mOrientation>\n</BulkSample>
#SPECTRUM    :
190403,
41076,
3341,
548,
183,
188,
648,
2792,
10393,
18771,
12737,
9636,
11431,
13693,
16036,
20593,
26796,
33235,
33058,
32897,
38271,
46828,
62671,
121466,
269442,
340671,
310804,
681217,
1340465,
1071424,
346537,
70226,
26858,
17170,
14496,
14468,
14572,
15330,
16137,
16680,
17843,
18655,
19612,
20381,
20807,
21684,
22432,
23024,
23868,
25965,
26655,
25734,
25563,
25902,
26217,
26884,
28705,
30566,
30922,
30330,
29617,
28846,
28255,
28221,
28582,
28852,
29223,
29582,
30171,
30639,
30999,
31119,
31268,
31436,
32199,
31972,
32274,
32430,
32821,
32874,
32746,
32802,
32509,
32818,
32811,
32934,
32701,
32815,
32896,
32674,
33073,
32594,
32524,
32494,
32529,
32538,
32431,
31970,
32079,
31724,
31936,
31651,
31510,
31345,
31345,
31226,
31176,
30623,
31169,
30407,
30424,
30606,
30380,
29833,
30073,
29513,
29652,
29317,
29154,
29034,
28812,
28609,
28202,
28620,
28571,
28015,
27854,
27942,
27503,
27096,
26667,
26785,
26778,
26439,
26509,
25851,
25751,
25827,
25495,
25532,
25375,
25030,
24971,
24841,
24865,
24392,
24231,
24122,
23987,
23769,
23620,
23587,
23313,
22786,
22657,
22828,
22755,
22136,
22221,
22093,
21918,
21777,
21396,
21550,
21467,
21177,
21180,
21268,
20465,
20731,
20408,
20404,
20253,
20155,
19846,
19896,
19649,
19882,
19753,
19719,
20193,
20023,
19680,
19399,
18829,
18427,
18571,
18718,
18797,
19409,
19912,
19846,
19763,
19415,
19172,
19943,
20476,
20505,
19475,
18877,
17702,
16991,
16770,
16652,
16498,
16049,
16275,
15933,
16101,
16227,
16494,
17213,
18126,
18440,
18400,
17890,
17105,
16114,
15576,
15297,
14780,
14608,
14499,
14411,
14263,
14305,
14182,
14233,
14118,
14085,
14043,
14121,
14131,
14159,
14193,
14470,
14316,
14410,
14547,
14559,
14957,
15897,
18308,
26530,
54542,
127281,
276558,
500440,
729331,
846253,
773298,
563577,
328480,
156650,
65264,
28240,
16339,
13102,
12059,
11848,
11611,
11702,
11554,
11606,
11503,
11795,
12062,
12396,
12904,
14178,
17496,
25975,
42036,
67585,
96342,
115867,
114721,
94609,
65453,
39761,
22400,
13614,
9897,
8322,
8091,
7786,
7677,
7677,
7617,
7715,
7479,
7513,
7518,
7571,
7583,
7551,
7433,
7591,
7389,
7388,
7411,
7456,
7618,
7596,
7572,
7407,
7449,
7175,
7152,
7216,
7005,
6951,
6859,
6883,
6721,
6784,
6878,
6623,
6779,
6617,
6605,
6621,
6645,
6526,
6509,
6334,
6343,
6511,
6410,
6170,
6264,
6199,
6257,
6212,
6069,
6140,
6057,
5789,
6044,
5928,
5874,
5829,
5954,
5781,
5762,
5700,
5703,
5807,
5767,
5636,
5747,
5736,
5720,
5740,
5672,
5459,
5345,
5288,
5304,
5161,
5231,
5160,
5228,
5178,
5033,
5067,
5248,
5124,
4991,
4921,
4911,
4940,
4833,
4739,
4806,
4616,
4677,
4697,
4617,
4542,
4576,
4517,
4484,
4434,
4391,
4562,
4441,
4252,
4320,
4233,
4197,
4246,
4269,
4138,
4015,
3996,
3974,
4148,
4120,
4005,
4131,
3878,
3930,
3803,
3766,
3814,
3788,
3658,
3752,
3776,
3683,
3490,
3544,
3492,
3529,
3464,
3499,
3517,
3584,
3570,
3513,
3543,
3522,
3327,
3324,
3166,
3189,
3172,
3161,
3086,
3029,
3119,
3106,
2964,
2927,
2955,
2994,
2828,
2782,
2917,
2824,
2806,
2757,
2770,
2728,
2774,
2788,
2707,
2634,
2549,
2476,
2566,
2573,
2460,
2512,
2384,
2506,
2404,
2444,
2297,
2356,
2284,
2270,
2186,
2203,
2281,
2212,
2176,
2147,
2149,
2046,
2012,
2127,
2057,
1999,
2043,
2060,
1944,
1925,
1992,
1914,
1853,
1984,
1857,
1852,
1790,
1718,
1816,
1807,
1827,
1760,
1732,
1723,
1745,
1843,
1892,
1916,
1986,
2036,
2005,
1931,
1766,
1761,
1591,
1530,
1471,
1490,
1400,
1352,
1443,
1395,
1387,
1330,
1363,
1252,
1249,
1323,
1256,
1249,
1221,
1283,
1237,
1316,
1292,
1209,
1250,
1284,
1254,
1200,
1121,
1064,
1064,
1106,
1038,
984,
1031,
997,
981,
938,
965,
965,
941,
845,
864,
866,
845,
875,
855,
856,
837,
855,
739,
820,
801,
758,
700,
726,
749,
688,
686,
744,
659,
667,
727,
662,
637,
620,
639,
632,
624,
615,
616,
592,
637,
564,
578,
524,
510,
528,
559,
470,
538,
522,
478,
510,
471,
485,
446,
444,
414,
424,
417,
409,
392,
401,
381,
401,
335,
387,
361,
337,
335,
318,
328,
287,
338,
285,
312,
303,
246,
260,
285,
269,
248,
291,
266,
231,
241,
230,
243,
227,
197,
226,
216,
218,
182,
207,
185,
164,
179,
153,
164,
161,
166,
145,
152,
136,
118,
129,
102,
135,
107,
112,
115,
97,
109,
96,
102,
95,
79,
50,
62,
63,
67,
64,
58,
48,
54,
52,
43,
37,
45,
29,
24,
24,
27,
16,
15,
5,
12,
4,
4,
6,
10,
2,
10,
7,
7,
2,
7,
5,
5,
5,
6,
5,
5,
2,
4,
10,
8,
3,
3,
5,
3,
2,
10,
5,
0,
5,
2,
3,
5,
2,
3,
3,
6,
3,
7,
9,
2,
3,
6,
2,
4,
1,
6,
7,
2,
6,
3,
3,
2,
1,
3,
5,
4,
3,
3,
5,
3,
3,
4,
2,
4,
0,
5,
1,
2,
1,
1,
5,
1,
2,
1,
3,
4,
4,
4,
1,
0,
1,
2,
2,
2,
1,
2,
3,
2,
1,
2,
2,
1,
2,
1,
5,
1,
1,
1,
0,
2,
1,
0,
1,
1,
1,
2,
0,
2,
0,
0,
1,
0,
3,
0,
0,
1,
3,
0,
2,
0,
1,
1,
1,
1,
1,
1,
0,
1,
1,
0,
1,
2,
2,
3,
0,
1,
1,
1,
0,
1,
0,
1,
1,
0,
1,
1,
2,
1,
0,
1,
1,
1,
1,
2,
0,
0,
0,
0,
1,
1,
1,
0,
1,
0,
1,
1,
1,
0,
2,
0,
1,
0,
0,
0,
0,
0,
1,
0,
0,
1,
2,
1,
0,
1,
1,
0,
0,
0,
0,
0,
0,
1,
1,
1,
0,
0,
1,
0,
0,
0,
0,
0,
1,
0,
0,
0,
0,
1,
0,
0,
0,
0,
0,
0,
0,
0,
0,
0,
0,
0,
0,
0,
0,
1,
0,
1,
0,
0,
0,
0,
0,
0,
0,
0,
0,
0,
0,
0,
0,
0,
0,
0,
0,
0,
0,
0,
0,
0,
0,
0,
0,
0,
0,
0,
0,
0,
1,
0,
0,
0,
0,
0,
0,
0,
0,
0,
0,
0,
0,
0,
0,
0,
0,
0,
0,
0,
1,
0,
0,
0,
0,
0,
0,
0,
1,
0,
0,
0,
0,
0,
0,
0,
0,
0,
0,
0,
0,
0,
0,
1,
0,
0,
0,
0,
0,
0,
0,
0,
0,
0,
0,
0,
0,
0,
0,
0,
0,
0,
0,
0,
1,
0,
0,
0,
0,
0,
0,
0,
0,
0,
0,
0,
0,
0,
0,
0,
0,
0,
0,
0,
0,
0,
0,
0,
0,
0,
0,
0,
0,
0,
0,
0,
0,
0,
0,
0,
0,
0,
0,
0,
0,
0,
0,
0,
0,
0,
0,
0,
0,
0,
0,
0,
0,
0,
0,
0,
0,
0,
0,
0,
0,
0,
0,
0,
0,
0,
0,
0,
0,
0,
0,
0,
0,
0,
0,
1,
0,
0,
1,
0,
0,
0,
0,
0,
0,
0,
0,
0,
0,
0,
0,
0,
0,
0,
0,
0,
0,
0,
0,
0,
0,
0,
0,
0,
0,
0,
0,
1,
0,
0,
0,
0,
0,
0,
0,
0,
0,
0,
0,
0,
0,
0,
0,
0,
0,
0,
0,
0,
0,
0,
0,
0,
0,
0,
0,
0,
0,
0,
0,
0,
0,
0,
0,
0,
0,
0,
0,
0,
0,
0,
0,
0,
0,
0,
0,
0,
0,
0,
0,
0,
0,
0,
0,
0,
0,
0,
0,
0,
0,
0,
0,
0,
0,
0,
0,
0,
0,
0,
0,
0,
0,
0,
0,
0,
0,
0,
0,
0,
0,
0,
0,
0,
0,
0,
0,
0,
0,
0,
0,
0,
0,
0,
0,
0,
0,
0,
0,
0,
0,
0,
0,
0,
0,
0,
0,
0,
0,
0,
0,
0,
0,
0,
0,
0,
0,
0,
0,
0,
0,
0,
0,
0,
0,
0,
0,
0,
0,
0,
0,
0,
0,
0,
0,
0,
0,
0,
0,
0,
0,
0,
0,
0,
0,
0,
0,
0,
0,
0,
0,
0,
0,
0,
0,
0,
0,
0,
0,
0,
0,
0,
0,
0,
0,
0,
0,
0,
0,
0,
0,
0,
0,
0,
0,
0,
0,
0,
0,
0,
0,
0,
0,
0,
0,
0,
0,
0,
0,
0,
0,
0,
0,
0,
0,
0,
0,
0,
0,
0,
0,
0,
0,
0,
0,
0,
0,
0,
0,
0,
0,
0,
0,
0,
0,
0,
0,
0,
0,
0,
0,
0,
0,
0,
0,
0,
0,
0,
0,
0,
0,
0,
0,
0,
0,
0,
0,
0,
0,
0,
0,
0,
0,
0,
0,
0,
0,
0,
0,
0,
0,
0,
0,
0,
1,
0,
0,
0,
0,
0,
0,
0,
0,
0,
0,
0,
0,
0,
#ENDOFDATA   :