File: NeXLParticle/Zeppelin/Standards/O std.msa
#FORMAT      : EMSA/MAS Spectral Data File
#VERSION     : 1.0
#TITLE       : MgO std
#DATE        : 11-OCT-2018
#TIME        : 00:18
#OWNER       : Unknown
#NPOINTS     : 4096
#NCOLUMNS    : 1
#XUNITS      : eV
#YUNITS      : counts
#DATATYPE    : Y
#XPERCHAN    : 9.99856
#OFFSET      : 1.63032
#BEAMKV      : 20
#SIGNALTYPE  : EDS
#ELEVANGLE   : 35
#AZIMANGLE   : 0
#LIVETIME    : 1161.48
#REALTIME    : 1492.12
#PROBECUR    : 0.9748
#TDEADLYR    : 0
#TACTLYR     : 0.045
#TALWIND     : 0.003
#CHOFFSET    : 0.0
#XLABEL      : Energy (eV)
#YLABEL      : Counts
#EDSDET      : SDUTW
##SPECIMEN   : MgO std
##D2STDCMP   : MgO,(O:39.6964),(Mg:60.3036),5.0
##DET_HASH   : 97086dfe-e5c2-9c77-3984-1d0b14bbbf41
##CALIB_HASH : 1a36e884-c26d-3547-51b1-d0bb2efdf95a
##WORKING    : 17.0 mm
##SAMPLE     : <BulkSample id="1">\n<mOrientation id="2">\n<double>0.0</double>\n<double>0.0</double>\n<double>-1.0</double>\n</mOrientation>\n</BulkSample>
#SPECTRUM    :
200298,
39425,
2062,
302,
117,
140,
455,
1928,
8213,
15482,
9983,
7069,
8366,
11040,
18908,
67556,
346098,
856145,
651185,
148029,
18670,
9430,
10438,
11364,
11595,
12132,
13352,
14475,
15950,
17358,
18743,
20540,
22810,
25867,
29700,
34382,
39369,
47166,
63576,
175935,
909625,
2756974,
3542980,
1902930,
468224,
73790,
18606,
11814,
10532,
10886,
11378,
11222,
11138,
10903,
11328,
11530,
12284,
14347,
18408,
21102,
19381,
15235,
13233,
12701,
12775,
12989,
12923,
13445,
13431,
13349,
13463,
13454,
13947,
13787,
13848,
13996,
13995,
14034,
14392,
14220,
14486,
15516,
18194,
22438,
23225,
19946,
16004,
14457,
13889,
13711,
13646,
13486,
13487,
13431,
13418,
13066,
13207,
13080,
13048,
12916,
13029,
12837,
12620,
12587,
12379,
12518,
12224,
12304,
12262,
12278,
12154,
12021,
11508,
11613,
11497,
11512,
11469,
11331,
11259,
11158,
11275,
11430,
11826,
11815,
11576,
11144,
10646,
10494,
10483,
10383,
10246,
10116,
9907,
10081,
10090,
9791,
9534,
9573,
9522,
9430,
9344,
9389,
9192,
9129,
9074,
8772,
8911,
8626,
8687,
8600,
8718,
8334,
8487,
8267,
8219,
8240,
8123,
8116,
8016,
7864,
7853,
7772,
7632,
7565,
7747,
7449,
7507,
7342,
7284,
7264,
7027,
7105,
7132,
7174,
7000,
6921,
7050,
6695,
6878,
6683,
6998,
6810,
6596,
6563,
6366,
6225,
6123,
6176,
6172,
6056,
6082,
6055,
5896,
6012,
5819,
5856,
5713,
5599,
5852,
5539,
5646,
5473,
5367,
5389,
5445,
5329,
5432,
5261,
5289,
5323,
5277,
5468,
5594,
5495,
5484,
5293,
5139,
4947,
4909,
4860,
4750,
4688,
4656,
4557,
4660,
4593,
4537,
4521,
4510,
4276,
4432,
4194,
4304,
4286,
4187,
4361,
4322,
4293,
4151,
4148,
4122,
3919,
3898,
3912,
3840,
3904,
3860,
3935,
4029,
3927,
3818,
3618,
3804,
3736,
3571,
3585,
3653,
3557,
3476,
3570,
3426,
3387,
3490,
3455,
3293,
3318,
3225,
3281,
3294,
3254,
3174,
3182,
3121,
3181,
3141,
3083,
3028,
3152,
3078,
3074,
2992,
3004,
2806,
2980,
2869,
2919,
2881,
2912,
2870,
2758,
2817,
2784,
2853,
2787,
2674,
2732,
2609,
2615,
2599,
2605,
2596,
2586,
2450,
2561,
2493,
2450,
2489,
2438,
2466,
2351,
2401,
2340,
2410,
2392,
2365,
2309,
2197,
2321,
2155,
2131,
2222,
2197,
2142,
2149,
2097,
2086,
2088,
2181,
2109,
2034,
2065,
1940,
2042,
1917,
1914,
1994,
2016,
1945,
1868,
1869,
1889,
1930,
1816,
1862,
1786,
1809,
1800,
1765,
1716,
1731,
1815,
1799,
1764,
1724,
1640,
1702,
1628,
1600,
1656,
1678,
1571,
1530,
1554,
1552,
1567,
1528,
1436,
1496,
1499,
1450,
1474,
1473,
1404,
1423,
1380,
1343,
1369,
1399,
1388,
1383,
1318,
1336,
1296,
1321,
1354,
1333,
1296,
1295,
1297,
1212,
1200,
1174,
1213,
1182,
1218,
1186,
1164,
1157,
1132,
1104,
1099,
1105,
1096,
1113,
1094,
1084,
1093,
1059,
1027,
1040,
1048,
1015,
965,
1014,
981,
960,
1025,
961,
1014,
926,
959,
974,
935,
908,
905,
898,
865,
938,
824,
842,
858,
809,
796,
821,
773,
785,
768,
767,
707,
761,
728,
728,
751,
738,
700,
704,
681,
723,
756,
680,
632,
637,
617,
623,
651,
664,
663,
582,
639,
576,
598,
594,
579,
552,
604,
605,
570,
517,
510,
518,
536,
538,
529,
510,
527,
531,
514,
483,
493,
469,
475,
471,
515,
473,
444,
447,
457,
467,
450,
422,
420,
418,
425,
438,
407,
397,
423,
361,
398,
388,
367,
361,
382,
333,
380,
358,
351,
326,
311,
344,
310,
335,
314,
304,
325,
294,
311,
318,
291,
283,
276,
257,
275,
288,
269,
297,
290,
247,
249,
254,
243,
233,
220,
204,
221,
237,
230,
246,
246,
190,
186,
204,
200,
217,
215,
197,
179,
186,
168,
188,
178,
172,
171,
173,
158,
144,
150,
161,
168,
153,
141,
147,
141,
147,
134,
141,
148,
120,
133,
140,
141,
111,
123,
125,
117,
118,
115,
105,
107,
104,
123,
90,
95,
96,
112,
104,
90,
94,
90,
104,
83,
75,
92,
76,
76,
86,
50,
64,
72,
55,
67,
65,
64,
49,
52,
55,
69,
51,
55,
57,
50,
49,
51,
49,
48,
48,
46,
41,
36,
33,
35,
36,
30,
38,
33,
36,
32,
34,
29,
28,
33,
25,
32,
19,
26,
20,
18,
30,
15,
16,
16,
16,
9,
22,
16,
15,
14,
5,
3,
9,
6,
10,
10,
3,
6,
1,
5,
0,
2,
1,
2,
1,
1,
0,
0,
0,
0,
1,
0,
0,
0,
1,
0,
0,
1,
0,
1,
1,
0,
0,
0,
1,
0,
0,
0,
0,
0,
1,
0,
0,
0,
0,
1,
0,
1,
0,
0,
1,
0,
0,
0,
0,
1,
1,
0,
0,
0,
0,
0,
0,
1,
0,
0,
0,
0,
1,
0,
0,
0,
0,
0,
0,
0,
0,
0,
0,
0,
0,
0,
0,
0,
0,
0,
0,
0,
0,
0,
0,
0,
0,
0,
0,
0,
0,
0,
0,
0,
0,
0,
0,
0,
0,
0,
0,
0,
0,
0,
0,
0,
0,
0,
0,
0,
0,
0,
1,
0,
0,
0,
0,
0,
0,
0,
0,
0,
1,
0,
0,
0,
0,
0,
0,
0,
0,
0,
0,
0,
0,
0,
0,
0,
0,
0,
0,
0,
0,
0,
0,
0,
0,
0,
0,
0,
0,
0,
0,
0,
0,
1,
0,
0,
0,
0,
0,
0,
0,
0,
0,
0,
0,
0,
0,
0,
0,
0,
0,
0,
0,
0,
0,
0,
0,
0,
0,
0,
0,
0,
0,
0,
0,
0,
0,
1,
0,
0,
0,
0,
0,
0,
0,
0,
0,
0,
0,
0,
0,
0,
0,
0,
0,
0,
0,
0,
0,
0,
0,
0,
0,
0,
0,
0,
0,
0,
0,
0,
0,
0,
0,
0,
0,
0,
0,
0,
0,
0,
0,
0,
0,
0,
0,
0,
0,
0,
0,
0,
0,
0,
0,
0,
0,
0,
0,
0,
0,
0,
0,
0,
0,
0,
0,
0,
0,
0,
0,
0,
0,
0,
0,
0,
0,
0,
0,
0,
0,
0,
0,
0,
0,
0,
0,
0,
0,
0,
0,
0,
0,
0,
0,
0,
0,
0,
0,
0,
0,
0,
0,
0,
0,
0,
0,
0,
0,
0,
0,
0,
0,
0,
0,
0,
0,
0,
0,
0,
0,
0,
0,
0,
0,
0,
0,
0,
1,
0,
0,
0,
0,
0,
0,
0,
0,
0,
0,
0,
0,
0,
0,
0,
0,
0,
0,
0,
0,
0,
0,
0,
0,
0,
0,
0,
0,
0,
0,
0,
0,
0,
0,
0,
0,
0,
0,
0,
0,
0,
0,
0,
0,
0,
0,
0,
0,
0,
0,
0,
0,
0,
0,
0,
0,
0,
0,
0,
0,
0,
0,
0,
0,
0,
0,
0,
0,
0,
0,
0,
0,
0,
0,
0,
0,
0,
0,
0,
0,
0,
0,
0,
0,
0,
0,
0,
0,
0,
0,
0,
0,
0,
0,
0,
0,
0,
0,
0,
0,
0,
0,
0,
0,
0,
0,
0,
0,
0,
0,
0,
0,
0,
0,
0,
0,
0,
0,
0,
0,
0,
0,
0,
0,
0,
0,
0,
0,
0,
0,
0,
0,
0,
0,
0,
0,
0,
0,
0,
0,
0,
0,
0,
0,
0,
0,
0,
0,
0,
0,
0,
0,
0,
0,
0,
0,
0,
0,
0,
0,
0,
0,
0,
0,
0,
0,
0,
0,
0,
0,
0,
0,
0,
0,
0,
0,
0,
0,
0,
0,
0,
0,
0,
0,
0,
0,
0,
0,
0,
0,
0,
0,
0,
0,
0,
0,
0,
0,
0,
0,
0,
0,
0,
0,
0,
0,
0,
0,
0,
0,
0,
0,
0,
0,
0,
0,
0,
0,
0,
0,
0,
0,
0,
0,
0,
0,
0,
0,
0,
0,
0,
0,
0,
0,
0,
0,
0,
0,
0,
0,
0,
0,
0,
0,
0,
0,
0,
0,
0,
0,
0,
0,
0,
0,
0,
0,
0,
0,
0,
0,
0,
0,
0,
0,
0,
0,
0,
0,
0,
0,
0,
0,
0,
0,
0,
0,
0,
0,
0,
0,
0,
0,
0,
0,
0,
0,
0,
0,
0,
0,
0,
0,
0,
0,
0,
0,
0,
0,
0,
0,
0,
0,
0,
0,
0,
0,
0,
0,
0,
0,
0,
0,
0,
0,
0,
0,
0,
0,
0,
0,
0,
0,
0,
0,
0,
0,
0,
0,
0,
0,
0,
0,
0,
0,
0,
0,
0,
0,
0,
0,
0,
0,
0,
0,
0,
0,
0,
0,
0,
0,
0,
0,
0,
0,
0,
0,
0,
0,
0,
0,
0,
0,
0,
0,
0,
0,
0,
0,
0,
0,
0,
0,
0,
0,
0,
0,
0,
0,
0,
0,
0,
0,
0,
0,
0,
0,
0,
0,
0,
0,
0,
0,
0,
0,
#ENDOFDATA   :