File: NeXLParticle/Zeppelin/Standards/S std.msa
#FORMAT      : EMSA/MAS Spectral Data File
#VERSION     : 1.0
#TITLE       : FeS2 std
#DATE        : 11-OCT-2018
#TIME        : 00:31
#OWNER       : Unknown
#NPOINTS     : 4096
#NCOLUMNS    : 1
#XUNITS      : eV
#YUNITS      : counts
#DATATYPE    : Y
#XPERCHAN    : 9.99856
#OFFSET      : 1.63032
#BEAMKV      : 20
#SIGNALTYPE  : EDS
#ELEVANGLE   : 35
#AZIMANGLE   : 0
#LIVETIME    : 1160.73
#REALTIME    : 1580.69
#PROBECUR    : 0.97334
#TDEADLYR    : 0
#TACTLYR     : 0.045
#TALWIND     : 0.003
#CHOFFSET    : 0.0
#XLABEL      : Energy (eV)
#YLABEL      : Counts
#EDSDET      : SDUTW
##SPECIMEN   : FeS2 std
##D2STDCMP   : FeS2,(S:53.4528),(Fe:46.5472),5.0
##DET_HASH   : 97086dfe-e5c2-9c77-3984-1d0b14bbbf41
##CALIB_HASH : 1a36e884-c26d-3547-51b1-d0bb2efdf95a
##WORKING    : 17.0 mm
##SAMPLE     : <BulkSample id="1">\n<mOrientation id="2">\n<double>0.0</double>\n<double>0.0</double>\n<double>-1.0</double>\n</mOrientation>\n</BulkSample>
#SPECTRUM    :
197408,
41899,
3080,
493,
268,
283,
560,
2000,
8033,
14761,
9545,
6600,
8375,
10280,
10437,
14540,
25596,
47710,
74573,
92534,
88481,
79896,
134916,
281113,
247620,
88320,
28998,
19585,
17723,
17409,
17974,
18707,
19943,
21043,
22765,
23982,
24728,
25381,
25953,
26634,
27591,
28533,
29362,
29797,
30402,
31309,
32369,
33234,
34246,
36209,
36631,
35701,
35003,
34001,
34554,
34878,
35588,
37609,
38623,
39190,
38341,
37838,
36854,
36581,
37060,
38117,
38994,
39974,
41116,
41420,
41136,
42829,
52806,
93327,
261178,
850443,
1966046,
2629769,
1952900,
829773,
268390,
180757,
208677,
176163,
97380,
43641,
24664,
20831,
20187,
20287,
20100,
20056,
20242,
20440,
20700,
20662,
20826,
20964,
21154,
21578,
22195,
21765,
21265,
20703,
20474,
20460,
20531,
20074,
20034,
20132,
19886,
19842,
19907,
19792,
19839,
19684,
19619,
19580,
19445,
19398,
19480,
19364,
19159,
19364,
19136,
18956,
19060,
18737,
18714,
18433,
18427,
18054,
18180,
18108,
18204,
17632,
18132,
17896,
17719,
17401,
17415,
17343,
17157,
17206,
17088,
16991,
16814,
16886,
16740,
16911,
16578,
17862,
19489,
21929,
23108,
22760,
20820,
18567,
17390,
16558,
16012,
15706,
15549,
15139,
15070,
14962,
14994,
14731,
14613,
14563,
14431,
14207,
14313,
14350,
14156,
14196,
14091,
14231,
14122,
14544,
14836,
14625,
14290,
13655,
13244,
13096,
12961,
12849,
12665,
12822,
12729,
12520,
12416,
12640,
12348,
12334,
12355,
12134,
12165,
12383,
12195,
12363,
12092,
12358,
12417,
12552,
13389,
15514,
23937,
51431,
121158,
250912,
411784,
520720,
505049,
374550,
216597,
99557,
40894,
18891,
12714,
11063,
10626,
10356,
10499,
10398,
10575,
10527,
10998,
11784,
13793,
18616,
29676,
46418,
64583,
75313,
70014,
53971,
34415,
20204,
12463,
9192,
7913,
7799,
7751,
7781,
7652,
7928,
7893,
8108,
7838,
7773,
7628,
7409,
7400,
7389,
7378,
7257,
7093,
7091,
7128,
7131,
6944,
6744,
6881,
6980,
6919,
6800,
6879,
6715,
6641,
6709,
6619,
6708,
6599,
6502,
6483,
6455,
6319,
6496,
6360,
6450,
6280,
6292,
6301,
6262,
6416,
6846,
7379,
7862,
8188,
8130,
7701,
7096,
6635,
6223,
6058,
5818,
5886,
5638,
5618,
5542,
5600,
5550,
5554,
5381,
5346,
5429,
5468,
5365,
5364,
5484,
5435,
5524,
5360,
5148,
5230,
5090,
5072,
4970,
4887,
4779,
4897,
4968,
4739,
4822,
4695,
4664,
4682,
4599,
4579,
4522,
4498,
4553,
4412,
4431,
4589,
4366,
4404,
4261,
4357,
4267,
4242,
4210,
4237,
4244,
4227,
4147,
4172,
3995,
4096,
4182,
4072,
3983,
3992,
4019,
3952,
3821,
3831,
3794,
3748,
3707,
3790,
3636,
3689,
3615,
3559,
3596,
3532,
3531,
3475,
3394,
3418,
3325,
3398,
3368,
3343,
3376,
3370,
3198,
3253,
3166,
3162,
3127,
3109,
3093,
3073,
3086,
3098,
2915,
2936,
2996,
2991,
2763,
2861,
2861,
2752,
2821,
2749,
2771,
2782,
2686,
2710,
2647,
2648,
2533,
2665,
2544,
2489,
2483,
2628,
2449,
2408,
2424,
2410,
2455,
2465,
2436,
2422,
2414,
2416,
2391,
2393,
2391,
2445,
2402,
2369,
2390,
2322,
2293,
2216,
2108,
2098,
2071,
1969,
2028,
1931,
1935,
2011,
1873,
1840,
1928,
1876,
1873,
1858,
1872,
1848,
1833,
1826,
1758,
1878,
1731,
1785,
1708,
1701,
1642,
1662,
1601,
1581,
1550,
1615,
1518,
1547,
1512,
1577,
1450,
1428,
1445,
1458,
1452,
1441,
1392,
1406,
1360,
1362,
1397,
1324,
1368,
1355,
1303,
1277,
1213,
1265,
1277,
1220,
1205,
1214,
1190,
1191,
1153,
1186,
1135,
1086,
1111,
1109,
1053,
1062,
1043,
1076,
990,
1038,
961,
1038,
965,
956,
914,
963,
950,
904,
935,
906,
870,
875,
885,
837,
923,
876,
861,
801,
792,
784,
817,
787,
779,
790,
756,
658,
734,
730,
698,
702,
673,
669,
698,
638,
656,
614,
631,
635,
635,
574,
615,
583,
585,
583,
546,
548,
543,
530,
496,
549,
495,
519,
492,
497,
505,
425,
472,
468,
447,
457,
453,
488,
426,
437,
441,
398,
371,
402,
388,
388,
405,
371,
334,
345,
357,
358,
337,
333,
333,
324,
291,
272,
293,
295,
317,
254,
290,
270,
277,
277,
273,
237,
264,
269,
246,
224,
216,
222,
220,
211,
204,
203,
208,
199,
169,
150,
191,
171,
187,
161,
159,
158,
162,
159,
152,
140,
140,
147,
143,
130,
130,
127,
125,
107,
117,
99,
100,
125,
132,
97,
107,
96,
89,
81,
70,
66,
75,
81,
83,
70,
74,
53,
59,
52,
45,
55,
53,
48,
41,
39,
42,
44,
38,
29,
38,
30,
33,
24,
28,
16,
19,
10,
20,
7,
14,
8,
9,
4,
5,
5,
3,
4,
1,
4,
2,
3,
6,
1,
5,
6,
5,
2,
3,
1,
2,
1,
2,
1,
3,
1,
0,
2,
1,
4,
2,
1,
0,
2,
2,
3,
3,
2,
1,
0,
4,
2,
1,
0,
1,
3,
0,
5,
0,
1,
2,
2,
1,
1,
0,
2,
0,
0,
2,
0,
2,
3,
1,
0,
0,
1,
0,
1,
0,
2,
0,
0,
0,
0,
0,
0,
1,
2,
2,
1,
4,
1,
0,
2,
1,
2,
0,
2,
0,
2,
0,
1,
0,
0,
1,
0,
1,
0,
0,
0,
1,
0,
3,
0,
2,
1,
0,
0,
0,
1,
0,
2,
1,
1,
1,
0,
1,
0,
0,
2,
0,
1,
0,
1,
0,
0,
1,
0,
0,
0,
0,
0,
0,
0,
1,
1,
0,
0,
0,
0,
1,
1,
0,
0,
0,
2,
0,
0,
2,
0,
0,
0,
0,
0,
0,
1,
0,
0,
1,
0,
1,
0,
0,
0,
0,
1,
0,
0,
0,
0,
1,
1,
1,
2,
0,
0,
0,
0,
1,
0,
1,
0,
0,
0,
0,
1,
0,
0,
0,
0,
0,
1,
0,
1,
1,
0,
0,
1,
0,
0,
1,
0,
0,
1,
0,
0,
0,
0,
0,
0,
0,
0,
0,
1,
1,
0,
0,
0,
0,
0,
0,
0,
0,
0,
0,
1,
0,
0,
0,
0,
0,
0,
0,
0,
0,
0,
0,
0,
0,
0,
0,
0,
0,
0,
0,
0,
1,
0,
0,
0,
0,
1,
0,
0,
0,
0,
0,
0,
0,
0,
0,
0,
0,
0,
0,
0,
0,
0,
0,
0,
0,
0,
0,
0,
0,
0,
0,
0,
0,
0,
0,
0,
0,
0,
0,
0,
0,
0,
0,
0,
0,
0,
0,
0,
0,
0,
0,
0,
0,
0,
0,
0,
0,
0,
0,
0,
0,
0,
0,
0,
0,
0,
0,
0,
0,
0,
0,
0,
0,
0,
0,
0,
0,
0,
0,
0,
0,
0,
0,
0,
0,
0,
0,
0,
0,
0,
0,
0,
0,
0,
0,
0,
0,
0,
0,
0,
0,
0,
0,
0,
0,
0,
0,
0,
0,
0,
0,
0,
0,
0,
0,
0,
0,
0,
0,
0,
0,
0,
0,
0,
0,
0,
0,
0,
0,
0,
0,
0,
0,
0,
0,
0,
0,
0,
0,
0,
0,
0,
0,
0,
0,
0,
0,
0,
0,
0,
0,
0,
0,
0,
0,
0,
0,
0,
0,
0,
0,
0,
0,
0,
0,
0,
0,
0,
0,
0,
0,
0,
0,
0,
0,
0,
0,
0,
0,
0,
0,
0,
0,
0,
0,
0,
0,
0,
0,
0,
0,
0,
0,
0,
0,
0,
0,
0,
0,
0,
0,
0,
0,
0,
0,
0,
0,
0,
0,
0,
0,
0,
0,
0,
0,
0,
0,
0,
0,
0,
0,
0,
0,
0,
0,
0,
0,
0,
0,
0,
0,
0,
0,
0,
0,
0,
1,
0,
0,
0,
0,
0,
0,
0,
0,
0,
0,
0,
0,
0,
0,
0,
0,
0,
0,
0,
0,
0,
0,
0,
0,
0,
0,
0,
0,
0,
0,
0,
0,
0,
0,
0,
0,
0,
0,
0,
0,
0,
0,
0,
0,
0,
0,
0,
0,
0,
0,
0,
0,
0,
0,
0,
0,
0,
0,
0,
0,
0,
0,
0,
0,
0,
0,
0,
0,
0,
0,
0,
0,
0,
0,
0,
0,
0,
0,
0,
0,
0,
0,
0,
0,
0,
0,
0,
0,
0,
0,
0,
0,
0,
0,
0,
0,
0,
0,
0,
0,
0,
0,
0,
0,
0,
0,
0,
0,
0,
0,
0,
0,
0,
0,
0,
0,
0,
0,
0,
0,
0,
0,
0,
0,
0,
0,
0,
0,
0,
0,
0,
0,
0,
0,
0,
0,
0,
0,
0,
0,
0,
0,
0,
0,
0,
0,
0,
0,
0,
0,
0,
0,
0,
0,
0,
0,
0,
0,
0,
0,
0,
0,
0,
0,
0,
0,
0,
0,
0,
0,
0,
0,
0,
0,
0,
0,
0,
0,
0,
0,
0,
0,
0,
0,
0,
0,
0,
0,
0,
0,
0,
0,
0,
0,
0,
0,
0,
0,
0,
0,
0,
0,
0,
0,
0,
0,
0,
0,
0,
0,
0,
0,
0,
0,
0,
0,
0,
0,
#ENDOFDATA   :