File: NeXLParticle/Zeppelin/Standards/Sb std.msa
#FORMAT      : EMSA/MAS Spectral Data File
#VERSION     : 1.0
#TITLE       : Sb std
#DATE        : 15-OCT-2018
#TIME        : 00:28
#OWNER       : Unknown
#NPOINTS     : 4096
#NCOLUMNS    : 1
#XUNITS      : eV
#YUNITS      : counts
#DATATYPE    : Y
#XPERCHAN    : 9.99856
#OFFSET      : 1.63032
#BEAMKV      : 20
#SIGNALTYPE  : EDS
#ELEVANGLE   : 35
#AZIMANGLE   : 0
#LIVETIME    : 1171.54
#REALTIME    : 1628.26
#PROBECUR    : 0.98858
#TDEADLYR    : 0
#TACTLYR     : 0.045
#TALWIND     : 0.003
#CHOFFSET    : 0.0
#XLABEL      : Energy (eV)
#YLABEL      : Counts
#EDSDET      : SDUTW
##SPECIMEN   : Sb std
##D2STDCMP   : Sb,(Sb:100.0),5.0
##DET_HASH   : 97086dfe-e5c2-9c77-3984-1d0b14bbbf41
##CALIB_HASH : 1a36e884-c26d-3547-51b1-d0bb2efdf95a
##WORKING    : 17.0 mm
##SAMPLE     : <BulkSample id="1">\n<mOrientation id="2">\n<double>0.0</double>\n<double>0.0</double>\n<double>-1.0</double>\n</mOrientation>\n</BulkSample>
#SPECTRUM    :
148418,
31274,
2642,
514,
239,
793,
2817,
9395,
25084,
35763,
23990,
22333,
39724,
97468,
154971,
110944,
64125,
60756,
46012,
23888,
17574,
17993,
19578,
24278,
30089,
30943,
27828,
24913,
23658,
23013,
23246,
23994,
24612,
25442,
26681,
28112,
29083,
29995,
30838,
32273,
33427,
34981,
35751,
36650,
37578,
38386,
39940,
41263,
44511,
46735,
47773,
45638,
43702,
43218,
43416,
44814,
46035,
48138,
50575,
51799,
54728,
60473,
64588,
60324,
53191,
49868,
49553,
49986,
51763,
55006,
57709,
57197,
55238,
53351,
52587,
52171,
51998,
52900,
53579,
53368,
52951,
52369,
51867,
51826,
51798,
52210,
52990,
52248,
52052,
51106,
51242,
51470,
51744,
51245,
50718,
50949,
50865,
50887,
51083,
50285,
50190,
50415,
51118,
53776,
63214,
81669,
98726,
98336,
80994,
63259,
54039,
52035,
53894,
60062,
68258,
76653,
98390,
196668,
494099,
1006562,
1409306,
1303287,
802459,
352666,
148389,
133123,
255061,
480692,
678006,
690177,
536885,
362420,
236380,
154021,
122303,
147080,
198659,
222770,
184023,
116597,
66971,
45494,
44422,
57023,
77413,
89704,
81503,
59465,
40271,
31526,
31686,
37810,
47409,
53186,
50703,
42502,
33908,
28450,
25720,
24247,
23729,
23345,
23484,
23366,
23400,
23602,
23128,
23456,
23213,
23404,
23209,
23278,
23281,
23440,
22974,
23329,
23051,
23240,
23277,
23805,
24050,
24184,
23958,
23401,
23232,
22414,
22464,
22241,
22392,
22394,
22337,
22291,
22332,
21942,
22107,
21914,
22059,
22272,
22112,
21755,
21670,
21558,
21657,
21159,
21467,
21464,
20988,
21198,
21041,
21249,
21499,
22197,
23060,
23785,
23554,
23088,
21557,
20847,
20398,
19964,
19910,
19917,
20014,
19588,
19999,
19625,
19801,
19722,
19768,
19406,
19278,
19233,
19247,
19160,
19522,
19228,
19279,
19506,
19356,
19741,
20144,
19861,
19673,
19270,
18713,
18455,
18855,
19146,
19921,
19675,
19593,
18967,
18360,
17910,
17874,
17781,
17720,
17860,
17700,
17336,
17248,
16991,
17013,
16730,
16800,
16787,
16515,
16468,
16348,
16235,
15998,
15892,
15905,
15705,
15843,
15671,
15673,
15627,
15366,
15352,
15017,
14898,
15090,
15064,
15072,
14712,
14743,
14527,
14675,
14429,
14484,
14318,
14282,
14103,
14082,
14085,
13789,
14119,
13803,
13826,
13603,
13759,
13407,
13519,
13336,
13354,
13409,
12960,
13153,
12957,
12954,
12948,
12741,
12929,
12746,
12784,
12626,
12416,
12532,
12288,
12085,
12230,
12290,
12150,
11892,
11964,
11941,
11796,
11629,
11675,
11792,
11438,
11298,
11486,
11463,
11412,
11295,
11083,
11244,
10965,
10890,
10771,
10660,
10854,
10691,
10649,
10611,
10488,
10503,
10728,
10697,
10736,
10614,
10591,
10383,
10176,
10107,
9971,
9826,
9867,
9819,
9742,
9729,
9654,
9451,
9537,
9264,
9324,
9115,
9138,
9016,
9024,
8950,
8903,
8666,
8971,
8895,
8688,
8753,
8612,
8469,
8424,
8565,
8310,
8342,
8170,
8013,
8163,
8000,
8088,
7997,
7943,
7770,
7819,
7922,
7764,
7674,
7641,
7433,
7397,
7581,
7277,
7170,
7163,
7155,
7034,
7116,
6954,
7021,
7037,
6859,
6668,
6612,
6649,
6688,
6678,
6868,
6625,
6535,
6580,
6697,
6560,
6417,
6242,
6339,
6116,
6041,
6104,
6018,
5762,
5874,
5860,
5861,
5777,
5758,
5619,
5498,
5566,
5483,
5445,
5406,
5454,
5316,
5196,
5254,
5160,
5198,
5076,
5106,
4898,
4947,
4820,
4865,
4802,
4795,
4780,
4706,
4614,
4630,
4553,
4500,
4548,
4494,
4469,
4312,
4287,
4193,
4294,
4211,
4181,
4272,
4075,
4047,
3994,
4118,
3873,
3959,
3879,
3879,
3816,
3729,
3792,
3609,
3706,
3652,
3635,
3588,
3524,
3496,
3454,
3503,
3405,
3374,
3278,
3306,
3280,
3163,
3220,
3096,
3091,
3003,
3091,
3010,
2989,
2931,
2980,
2857,
2756,
2831,
2863,
2779,
2814,
2672,
2731,
2706,
2640,
2723,
2486,
2591,
2486,
2444,
2454,
2500,
2326,
2338,
2399,
2362,
2360,
2334,
2183,
2194,
2286,
2202,
2150,
2093,
2056,
2101,
2033,
1961,
1961,
1928,
1967,
1884,
1875,
1832,
1871,
1812,
1775,
1768,
1754,
1698,
1675,
1667,
1641,
1608,
1571,
1516,
1577,
1532,
1531,
1444,
1511,
1449,
1403,
1428,
1461,
1328,
1333,
1310,
1394,
1365,
1232,
1282,
1222,
1179,
1116,
1164,
1191,
1216,
1124,
1046,
1083,
1113,
1094,
996,
1059,
1006,
1037,
1020,
965,
954,
942,
908,
870,
883,
849,
831,
832,
826,
837,
764,
750,
742,
750,
806,
685,
676,
667,
656,
681,
648,
637,
633,
586,
567,
590,
536,
522,
552,
541,
504,
487,
482,
485,
464,
420,
452,
417,
415,
388,
423,
349,
355,
365,
366,
327,
337,
309,
303,
327,
278,
269,
279,
253,
222,
229,
227,
217,
244,
180,
223,
154,
155,
179,
140,
143,
137,
117,
96,
94,
96,
87,
73,
49,
51,
52,
37,
29,
31,
20,
14,
14,
13,
11,
12,
11,
9,
10,
10,
6,
7,
7,
11,
10,
10,
14,
7,
6,
8,
10,
10,
5,
8,
14,
13,
10,
9,
8,
11,
6,
7,
6,
7,
7,
8,
4,
7,
11,
8,
8,
9,
10,
7,
5,
8,
6,
3,
10,
4,
4,
10,
11,
5,
3,
5,
5,
4,
5,
7,
5,
5,
2,
2,
4,
8,
5,
3,
1,
2,
4,
7,
2,
5,
5,
4,
5,
2,
3,
6,
3,
1,
3,
3,
2,
3,
4,
3,
2,
2,
1,
2,
3,
1,
3,
2,
4,
3,
3,
5,
4,
4,
4,
3,
3,
1,
4,
2,
5,
3,
2,
3,
2,
1,
2,
0,
3,
1,
3,
2,
2,
0,
1,
0,
5,
3,
2,
1,
1,
0,
1,
0,
0,
2,
2,
2,
3,
0,
2,
1,
1,
1,
0,
1,
2,
0,
2,
0,
3,
1,
2,
0,
0,
1,
0,
1,
1,
0,
0,
1,
0,
0,
3,
0,
2,
2,
1,
2,
0,
0,
0,
0,
1,
1,
0,
0,
1,
0,
2,
0,
0,
0,
3,
0,
1,
0,
2,
0,
0,
0,
1,
0,
3,
0,
1,
0,
0,
1,
0,
1,
0,
0,
2,
0,
2,
0,
0,
0,
2,
0,
0,
0,
0,
0,
1,
0,
0,
0,
0,
0,
3,
2,
0,
0,
1,
1,
1,
0,
0,
1,
0,
0,
1,
0,
0,
0,
1,
0,
0,
1,
0,
0,
2,
2,
0,
0,
0,
0,
0,
1,
0,
0,
0,
1,
0,
0,
0,
0,
0,
0,
1,
0,
0,
0,
0,
0,
0,
0,
0,
0,
0,
1,
0,
0,
0,
0,
0,
0,
0,
0,
0,
0,
0,
0,
1,
0,
0,
0,
0,
0,
1,
0,
0,
0,
0,
1,
0,
0,
0,
0,
0,
0,
0,
1,
0,
0,
0,
0,
0,
0,
0,
0,
0,
0,
0,
1,
0,
0,
1,
0,
0,
0,
0,
0,
0,
0,
0,
0,
0,
0,
0,
0,
0,
0,
0,
0,
0,
1,
0,
0,
0,
0,
0,
0,
0,
0,
1,
0,
0,
0,
0,
0,
0,
0,
0,
0,
0,
0,
0,
0,
0,
0,
0,
0,
0,
0,
0,
0,
0,
0,
0,
0,
0,
0,
0,
0,
0,
0,
0,
0,
0,
0,
0,
0,
0,
0,
0,
0,
1,
0,
0,
0,
0,
0,
0,
0,
0,
0,
0,
0,
0,
0,
0,
0,
0,
0,
0,
0,
0,
0,
0,
0,
0,
0,
0,
0,
0,
0,
0,
0,
0,
0,
0,
0,
0,
0,
0,
0,
0,
0,
0,
0,
0,
0,
0,
0,
0,
0,
0,
0,
0,
0,
0,
0,
0,
0,
0,
0,
0,
0,
0,
0,
0,
0,
0,
0,
0,
0,
0,
0,
0,
0,
0,
0,
0,
0,
0,
0,
0,
0,
0,
0,
0,
0,
0,
0,
0,
0,
0,
0,
0,
0,
0,
0,
1,
0,
0,
0,
0,
0,
0,
0,
0,
0,
0,
0,
0,
0,
0,
0,
0,
0,
0,
0,
0,
0,
0,
0,
0,
0,
0,
0,
0,
0,
0,
0,
0,
0,
0,
0,
0,
0,
0,
0,
0,
0,
0,
0,
0,
0,
0,
0,
0,
0,
0,
0,
0,
0,
0,
0,
0,
0,
0,
0,
0,
0,
0,
0,
0,
0,
0,
0,
0,
0,
0,
0,
0,
0,
0,
0,
0,
0,
0,
0,
0,
0,
0,
0,
0,
0,
0,
0,
0,
0,
0,
0,
0,
0,
0,
0,
0,
0,
0,
0,
0,
0,
0,
0,
0,
0,
0,
0,
0,
0,
0,
0,
0,
0,
0,
0,
0,
0,
0,
0,
0,
0,
0,
0,
0,
0,
0,
0,
0,
0,
0,
0,
0,
0,
0,
0,
0,
0,
0,
0,
0,
0,
0,
0,
0,
0,
0,
0,
0,
0,
0,
0,
0,
0,
0,
0,
0,
0,
0,
0,
0,
0,
0,
0,
0,
0,
0,
0,
0,
0,
0,
0,
0,
0,
0,
0,
0,
0,
0,
0,
0,
0,
0,
0,
0,
0,
0,
0,
0,
0,
0,
0,
0,
0,
0,
0,
0,
0,
0,
0,
0,
0,
0,
0,
0,
0,
0,
0,
0,
0,
0,
0,
0,
#ENDOFDATA   :