File: NeXLParticle/Zeppelin/Standards/Ti std.msa
#FORMAT      : EMSA/MAS Spectral Data File
#VERSION     : 1.0
#TITLE       : Ti std
#DATE        : 11-OCT-2018
#TIME        : 01:48
#OWNER       : Unknown
#NPOINTS     : 4096
#NCOLUMNS    : 1
#XUNITS      : eV
#YUNITS      : counts
#DATATYPE    : Y
#XPERCHAN    : 9.99856
#OFFSET      : 1.63032
#BEAMKV      : 20
#SIGNALTYPE  : EDS
#ELEVANGLE   : 35
#AZIMANGLE   : 0
#LIVETIME    : 1160.26
#REALTIME    : 1570.97
#PROBECUR    : 0.9752
#TDEADLYR    : 0
#TACTLYR     : 0.045
#TALWIND     : 0.003
#CHOFFSET    : 0.0
#XLABEL      : Energy (eV)
#YLABEL      : Counts
#EDSDET      : SDUTW
##SPECIMEN   : Ti std
##D2STDCMP   : Ti,(Ti:100.0),5.0
##DET_HASH   : 97086dfe-e5c2-9c77-3984-1d0b14bbbf41
##CALIB_HASH : 1a36e884-c26d-3547-51b1-d0bb2efdf95a
##WORKING    : 17.0 mm
##SAMPLE     : <BulkSample id="1">\n<mOrientation id="2">\n<double>0.0</double>\n<double>0.0</double>\n<double>-1.0</double>\n</mOrientation>\n</BulkSample>
#SPECTRUM    :
190333,
41233,
3346,
524,
164,
204,
700,
3204,
11312,
19601,
16447,
35435,
120177,
196822,
177567,
147301,
67148,
37436,
26050,
10464,
6749,
7321,
8583,
9976,
10501,
10829,
11583,
12525,
13969,
14926,
16072,
17183,
18301,
19254,
20850,
22262,
23190,
23913,
25106,
25637,
26366,
27474,
28341,
28896,
29880,
30033,
30830,
31809,
33536,
35849,
36338,
35012,
33661,
33164,
33380,
34033,
35033,
36514,
38454,
38501,
37804,
36682,
35406,
35150,
34989,
35388,
35495,
35892,
35768,
35901,
35602,
35689,
35503,
35765,
35690,
35625,
35166,
35086,
35030,
34868,
34542,
34295,
34012,
34092,
33949,
33683,
33489,
33548,
34204,
34835,
38791,
45521,
51887,
48605,
40429,
34383,
32108,
31187,
31099,
31167,
30689,
30178,
30154,
30219,
30465,
30977,
31379,
30585,
29493,
29066,
28564,
28417,
28051,
27853,
27342,
27090,
27196,
27024,
26823,
26584,
26529,
26425,
26346,
26584,
26187,
26031,
25684,
25571,
25754,
25672,
25550,
25218,
25121,
24477,
24114,
23571,
23382,
23194,
23347,
23399,
24031,
24274,
25566,
27930,
32483,
46415,
102380,
308948,
836500,
1673835,
2359227,
2304645,
1570394,
751637,
265950,
82965,
34358,
25260,
24761,
28370,
38141,
67025,
130128,
225690,
302080,
297690,
215216,
118597,
52207,
23659,
14220,
11841,
11520,
11286,
11251,
11202,
11543,
11635,
11518,
11771,
11758,
11514,
11463,
11450,
11332,
11114,
10883,
11091,
10876,
10991,
10995,
10949,
10854,
10965,
10816,
10582,
10639,
10798,
10786,
10678,
10601,
10554,
10375,
10535,
10418,
10252,
10327,
10371,
10179,
10235,
10025,
10562,
10739,
10686,
10783,
10544,
10279,
9929,
9887,
9580,
9600,
9679,
9641,
9599,
9539,
9536,
9234,
9455,
9327,
9168,
9090,
9236,
9041,
9100,
9110,
9024,
9020,
8788,
8726,
8941,
8760,
8589,
8578,
8546,
8598,
8339,
8464,
8615,
8383,
8348,
8372,
8438,
8058,
8158,
8089,
8082,
7926,
7775,
7875,
7818,
7703,
7609,
7738,
7626,
7530,
7348,
7549,
7589,
7296,
7358,
7395,
7373,
7279,
7147,
7209,
7071,
7077,
7103,
6938,
7015,
7009,
6825,
6775,
6682,
6806,
6727,
6682,
6623,
6521,
6590,
6479,
6455,
6645,
6395,
6456,
6574,
6848,
7248,
8191,
9376,
10371,
10721,
10361,
9407,
7765,
6843,
6455,
5994,
6030,
5818,
5965,
6031,
6248,
6530,
6550,
6765,
6536,
6217,
5909,
5655,
5356,
5321,
5370,
5238,
5258,
5208,
5225,
5102,
5071,
5179,
5090,
5131,
4980,
4985,
4849,
4928,
4890,
4749,
4715,
4863,
4761,
4759,
4541,
4493,
4577,
4557,
4646,
4519,
4579,
4519,
4556,
4433,
4436,
4419,
4463,
4341,
4279,
4203,
4156,
4186,
4077,
3955,
4003,
3980,
3907,
3956,
4033,
3773,
3786,
3950,
3858,
3863,
3796,
3653,
3712,
3645,
3545,
3597,
3659,
3596,
3452,
3554,
3402,
3470,
3407,
3386,
3314,
3274,
3374,
3360,
3272,
3187,
3220,
3153,
3192,
3106,
3253,
3123,
3095,
3050,
3010,
2941,
2915,
3001,
2836,
2909,
2940,
2911,
2875,
2775,
2779,
2637,
2769,
2682,
2650,
2607,
2690,
2640,
2711,
2662,
2609,
2704,
2606,
2564,
2470,
2511,
2419,
2395,
2324,
2380,
2229,
2262,
2319,
2257,
2250,
2311,
2115,
2131,
2110,
2144,
2138,
2058,
2095,
2032,
2027,
2029,
2073,
2021,
1957,
1850,
1985,
1956,
1870,
1851,
1867,
1871,
1892,
1809,
1826,
1755,
1713,
1655,
1669,
1685,
1667,
1636,
1647,
1631,
1517,
1526,
1549,
1566,
1506,
1514,
1535,
1562,
1484,
1468,
1473,
1458,
1458,
1433,
1344,
1437,
1317,
1315,
1300,
1343,
1304,
1239,
1245,
1236,
1217,
1245,
1238,
1196,
1180,
1114,
1203,
1097,
1209,
1113,
1086,
1128,
1091,
1041,
1068,
1107,
1051,
1051,
972,
961,
971,
957,
973,
930,
930,
938,
898,
871,
876,
899,
821,
856,
799,
776,
784,
820,
710,
777,
763,
747,
757,
706,
746,
709,
721,
751,
744,
711,
680,
696,
670,
672,
575,
637,
587,
593,
608,
645,
588,
573,
574,
539,
536,
566,
513,
572,
545,
472,
517,
503,
469,
443,
475,
453,
463,
480,
415,
462,
409,
409,
388,
381,
406,
381,
362,
403,
399,
381,
361,
366,
346,
342,
298,
304,
327,
311,
308,
304,
273,
303,
301,
294,
277,
283,
278,
253,
261,
234,
230,
222,
244,
220,
239,
206,
244,
222,
206,
189,
185,
178,
217,
175,
168,
176,
178,
175,
154,
139,
149,
143,
137,
133,
137,
144,
123,
119,
132,
104,
112,
119,
99,
94,
102,
92,
98,
74,
71,
69,
67,
83,
95,
83,
54,
74,
62,
54,
48,
54,
56,
49,
44,
46,
36,
41,
44,
32,
35,
29,
27,
14,
19,
21,
9,
5,
12,
8,
6,
7,
10,
6,
5,
2,
3,
1,
3,
3,
2,
4,
0,
5,
5,
2,
2,
5,
3,
5,
4,
2,
4,
1,
5,
5,
1,
3,
3,
1,
1,
3,
2,
4,
3,
2,
2,
1,
0,
2,
2,
3,
2,
1,
1,
0,
2,
3,
2,
3,
4,
2,
2,
1,
3,
2,
1,
1,
6,
3,
0,
2,
2,
2,
3,
1,
1,
4,
2,
3,
3,
2,
1,
1,
3,
0,
0,
0,
0,
1,
0,
2,
0,
1,
1,
1,
0,
2,
2,
0,
1,
0,
2,
0,
0,
1,
0,
0,
1,
1,
1,
0,
2,
2,
0,
3,
0,
2,
0,
1,
1,
0,
0,
0,
0,
0,
1,
0,
1,
1,
1,
1,
1,
0,
1,
3,
0,
0,
0,
1,
0,
0,
0,
1,
0,
0,
0,
2,
1,
0,
0,
0,
1,
0,
0,
0,
1,
0,
0,
0,
0,
0,
0,
0,
0,
0,
1,
0,
0,
0,
0,
0,
0,
0,
0,
0,
0,
0,
0,
0,
1,
0,
0,
0,
0,
0,
1,
0,
0,
0,
0,
0,
0,
0,
0,
0,
0,
0,
0,
0,
0,
0,
0,
0,
0,
0,
0,
0,
0,
0,
0,
0,
0,
0,
0,
0,
0,
0,
1,
0,
0,
0,
0,
0,
0,
0,
0,
0,
0,
1,
0,
0,
0,
0,
0,
0,
0,
0,
0,
0,
0,
0,
0,
0,
0,
0,
0,
0,
0,
0,
0,
1,
0,
0,
0,
1,
0,
0,
1,
0,
0,
0,
0,
0,
0,
0,
0,
0,
1,
0,
0,
0,
0,
1,
0,
0,
0,
0,
0,
0,
0,
0,
0,
0,
0,
0,
0,
0,
0,
0,
0,
0,
0,
0,
0,
0,
0,
0,
0,
0,
0,
0,
0,
0,
0,
0,
0,
0,
0,
0,
0,
0,
0,
0,
0,
0,
0,
0,
0,
0,
0,
0,
0,
0,
0,
0,
0,
0,
0,
0,
0,
0,
0,
0,
0,
0,
0,
0,
0,
0,
0,
0,
0,
0,
0,
0,
0,
0,
0,
0,
0,
0,
0,
0,
0,
0,
0,
0,
0,
0,
0,
0,
0,
0,
0,
0,
0,
0,
0,
0,
0,
0,
0,
0,
0,
0,
0,
0,
0,
0,
0,
0,
0,
0,
0,
0,
0,
0,
0,
0,
0,
0,
0,
0,
0,
0,
0,
0,
0,
0,
0,
0,
0,
0,
0,
0,
0,
0,
0,
0,
0,
0,
0,
0,
0,
0,
0,
0,
0,
0,
0,
0,
0,
0,
0,
0,
0,
0,
0,
0,
0,
0,
0,
0,
0,
0,
0,
0,
0,
0,
0,
0,
0,
0,
0,
0,
0,
0,
0,
0,
0,
0,
0,
0,
0,
0,
0,
0,
0,
0,
0,
0,
1,
0,
1,
0,
0,
0,
0,
0,
0,
0,
0,
0,
0,
0,
0,
0,
0,
0,
0,
0,
0,
0,
0,
0,
0,
0,
0,
0,
0,
0,
0,
0,
0,
0,
0,
0,
0,
0,
0,
0,
0,
0,
0,
0,
0,
0,
0,
0,
0,
0,
0,
0,
0,
0,
0,
0,
0,
0,
0,
0,
0,
0,
0,
0,
0,
0,
0,
0,
0,
0,
0,
0,
0,
0,
0,
0,
0,
0,
0,
0,
0,
0,
0,
0,
0,
0,
0,
0,
0,
0,
0,
0,
0,
0,
0,
0,
0,
0,
0,
0,
0,
0,
0,
0,
0,
0,
0,
0,
0,
0,
0,
0,
0,
0,
0,
0,
0,
0,
0,
0,
0,
0,
0,
0,
0,
0,
0,
0,
0,
0,
0,
0,
0,
0,
0,
0,
0,
0,
0,
0,
0,
0,
0,
0,
0,
0,
0,
0,
0,
0,
0,
0,
0,
0,
0,
0,
0,
0,
0,
0,
0,
0,
0,
0,
0,
0,
0,
0,
0,
0,
0,
0,
0,
0,
0,
0,
0,
0,
0,
0,
0,
0,
0,
0,
0,
0,
0,
0,
0,
0,
0,
0,
0,
0,
0,
0,
0,
0,
0,
0,
0,
0,
0,
0,
0,
0,
0,
0,
0,
0,
0,
0,
0,
0,
0,
0,
0,
0,
0,
0,
0,
0,
0,
0,
0,
0,
0,
0,
0,
0,
0,
0,
0,
0,
0,
0,
0,
0,
0,
0,
0,
0,
0,
0,
0,
0,
#ENDOFDATA   :