File: NeXLParticle/Zeppelin/Standards/V std.msa
#FORMAT      : EMSA/MAS Spectral Data File
#VERSION     : 1.0
#TITLE       : V std
#DATE        : 11-OCT-2018
#TIME        : 01:41
#OWNER       : Unknown
#NPOINTS     : 4096
#NCOLUMNS    : 1
#XUNITS      : eV
#YUNITS      : counts
#DATATYPE    : Y
#XPERCHAN    : 9.99856
#OFFSET      : 1.63032
#BEAMKV      : 20
#SIGNALTYPE  : EDS
#ELEVANGLE   : 35
#AZIMANGLE   : 0
#LIVETIME    : 1161.73
#REALTIME    : 1557.45
#PROBECUR    : 0.97515
#TDEADLYR    : 0
#TACTLYR     : 0.045
#TALWIND     : 0.003
#CHOFFSET    : 0.0
#XLABEL      : Energy (eV)
#YLABEL      : Counts
#EDSDET      : SDUTW
##SPECIMEN   : V std
##D2STDCMP   : V,(V:100.0),5.0
##DET_HASH   : 97086dfe-e5c2-9c77-3984-1d0b14bbbf41
##CALIB_HASH : 1a36e884-c26d-3547-51b1-d0bb2efdf95a
##WORKING    : 17.0 mm
##SAMPLE     : <BulkSample id="1">\n<mOrientation id="2">\n<double>0.0</double>\n<double>0.0</double>\n<double>-1.0</double>\n</mOrientation>\n</BulkSample>
#SPECTRUM    :
190543,
41507,
3323,
540,
168,
179,
678,
2932,
10612,
17941,
13269,
13447,
23042,
65508,
183022,
253228,
286313,
301990,
127484,
26230,
10155,
7860,
8036,
9221,
9473,
9864,
10629,
11526,
12569,
13775,
14706,
15859,
16953,
18055,
19528,
20760,
21553,
22430,
23425,
24009,
25087,
25803,
27073,
27652,
27877,
28749,
29442,
30498,
31845,
34563,
35069,
33266,
32349,
31688,
31644,
32768,
33948,
36401,
37803,
37603,
36322,
35565,
34362,
33882,
34182,
34669,
34706,
34888,
34966,
35294,
34931,
34979,
35137,
34922,
34820,
35608,
35750,
35748,
35603,
34690,
35058,
34551,
34429,
33933,
33973,
34113,
34009,
33521,
33522,
33134,
33256,
32715,
32318,
32427,
31940,
31829,
31662,
31392,
31324,
31475,
31199,
30931,
30982,
31334,
32543,
36152,
41052,
43369,
39737,
34451,
30788,
29177,
28970,
28212,
27737,
27482,
27485,
27346,
27096,
26948,
27462,
27303,
28157,
27573,
26996,
26471,
25838,
25393,
24933,
24897,
24796,
24711,
24784,
24772,
24545,
24105,
24058,
24094,
24001,
24081,
23791,
23810,
23782,
23497,
23157,
22900,
22516,
22188,
21714,
21566,
21497,
21684,
21654,
21835,
21940,
22465,
22760,
24542,
26862,
33241,
55539,
146862,
421089,
982391,
1691911,
2085909,
1834841,
1157020,
530314,
187591,
61536,
28601,
21782,
21101,
21300,
24019,
30252,
47868,
89815,
162016,
239479,
272462,
231493,
150829,
77322,
35145,
17967,
12344,
11212,
10878,
10569,
10788,
10703,
10976,
10788,
10790,
10919,
11053,
10942,
10768,
10611,
10503,
10504,
10234,
10506,
10422,
10314,
10325,
10263,
10244,
10403,
10605,
10891,
10755,
10665,
10550,
10286,
9998,
9894,
9893,
9971,
9635,
9704,
9789,
9743,
9721,
9638,
9505,
9471,
9350,
9348,
9355,
9250,
9348,
9384,
9352,
9113,
9010,
9059,
8928,
8947,
8980,
8916,
8813,
8578,
8771,
8643,
8985,
8857,
8835,
8527,
8462,
8422,
8410,
8306,
8386,
8094,
8090,
8105,
8145,
7900,
7964,
8176,
7981,
7748,
7836,
7771,
7819,
7730,
7758,
7788,
7727,
7522,
7528,
7392,
7423,
7397,
7246,
7260,
7396,
7288,
7116,
7084,
7033,
7120,
6871,
6929,
6806,
6865,
6878,
6711,
6836,
6675,
6639,
6581,
6465,
6416,
6489,
6446,
6473,
6309,
6378,
6411,
6216,
6290,
6319,
6304,
6193,
6020,
6046,
5977,
5992,
5937,
5787,
5841,
5872,
5687,
5807,
5677,
5636,
5600,
5677,
5661,
5607,
5661,
5718,
6128,
6651,
7385,
8226,
8688,
8355,
7967,
7067,
6054,
5522,
5336,
5083,
5126,
5075,
5060,
5138,
5010,
5228,
5386,
5512,
5572,
5573,
5329,
5267,
5098,
4910,
4704,
4738,
4610,
4631,
4349,
4338,
4399,
4326,
4392,
4295,
4261,
4317,
4187,
4305,
4160,
4226,
4055,
3989,
4029,
3964,
3902,
3866,
3824,
3928,
3859,
3831,
3785,
3727,
3812,
3634,
3687,
3643,
3647,
3602,
3604,
3581,
3505,
3426,
3498,
3403,
3428,
3386,
3309,
3306,
3390,
3302,
3222,
3245,
3141,
3131,
3153,
3028,
3016,
3059,
3021,
2948,
2985,
2854,
2932,
2876,
2963,
2915,
2865,
2844,
2757,
2730,
2834,
2760,
2777,
2821,
2774,
2720,
2642,
2590,
2662,
2604,
2542,
2460,
2455,
2449,
2299,
2386,
2387,
2373,
2341,
2299,
2248,
2318,
2297,
2237,
2295,
2206,
2158,
2162,
2152,
2056,
2077,
2143,
2002,
2025,
2044,
2029,
2032,
1930,
1944,
1929,
1861,
1818,
1844,
1868,
1876,
1808,
1849,
1829,
1758,
1659,
1698,
1689,
1623,
1677,
1661,
1651,
1642,
1499,
1569,
1527,
1489,
1577,
1515,
1443,
1534,
1502,
1442,
1411,
1406,
1401,
1418,
1383,
1378,
1369,
1425,
1338,
1318,
1261,
1270,
1261,
1235,
1229,
1259,
1154,
1152,
1215,
1161,
1156,
1105,
1161,
1080,
1025,
1031,
1075,
994,
1027,
976,
979,
973,
924,
934,
936,
927,
943,
954,
885,
898,
869,
870,
864,
858,
823,
889,
825,
786,
821,
777,
759,
771,
771,
729,
712,
730,
706,
693,
716,
715,
710,
626,
685,
639,
650,
625,
624,
603,
614,
587,
589,
562,
572,
567,
528,
564,
535,
501,
473,
511,
527,
480,
467,
476,
485,
475,
463,
434,
445,
430,
400,
394,
431,
401,
385,
405,
406,
358,
374,
346,
328,
360,
340,
361,
338,
296,
325,
304,
277,
295,
295,
280,
270,
302,
278,
275,
256,
246,
278,
243,
241,
229,
239,
219,
221,
216,
212,
199,
199,
190,
196,
190,
190,
157,
170,
149,
125,
162,
147,
144,
139,
144,
149,
139,
127,
89,
132,
110,
102,
95,
90,
106,
105,
90,
71,
85,
87,
67,
70,
67,
72,
65,
57,
55,
66,
52,
50,
56,
51,
42,
35,
32,
33,
27,
34,
17,
24,
25,
21,
19,
12,
8,
8,
11,
6,
3,
6,
5,
7,
10,
2,
2,
3,
8,
5,
5,
8,
4,
5,
3,
5,
3,
4,
1,
4,
4,
4,
2,
2,
2,
4,
1,
5,
1,
3,
3,
1,
6,
2,
3,
1,
3,
1,
4,
1,
1,
2,
0,
0,
3,
5,
4,
2,
1,
3,
4,
0,
1,
3,
1,
5,
1,
1,
2,
1,
4,
1,
3,
2,
0,
1,
2,
1,
0,
1,
2,
1,
0,
2,
3,
1,
1,
1,
1,
5,
0,
4,
2,
2,
0,
2,
3,
4,
0,
2,
0,
0,
1,
2,
1,
3,
1,
1,
0,
1,
0,
1,
3,
0,
0,
1,
1,
0,
1,
1,
2,
0,
1,
0,
1,
0,
1,
3,
2,
2,
0,
0,
0,
0,
1,
0,
1,
0,
0,
2,
0,
0,
0,
1,
0,
3,
0,
1,
1,
1,
0,
0,
0,
0,
0,
0,
0,
0,
1,
0,
1,
0,
0,
0,
0,
0,
0,
0,
0,
0,
0,
0,
0,
1,
0,
0,
0,
0,
0,
0,
0,
0,
0,
0,
0,
0,
0,
0,
0,
0,
1,
0,
0,
0,
0,
0,
0,
0,
0,
0,
0,
0,
0,
1,
0,
0,
0,
0,
0,
0,
0,
0,
0,
0,
0,
0,
0,
0,
0,
0,
0,
0,
0,
0,
0,
0,
0,
0,
0,
0,
1,
0,
0,
0,
0,
0,
0,
0,
0,
0,
0,
0,
1,
0,
0,
0,
0,
0,
0,
0,
0,
0,
0,
1,
0,
0,
0,
0,
0,
0,
0,
0,
1,
0,
0,
0,
0,
0,
0,
0,
0,
0,
0,
0,
0,
0,
0,
0,
0,
0,
0,
0,
0,
0,
0,
0,
0,
1,
0,
0,
0,
0,
0,
0,
0,
0,
0,
0,
0,
0,
0,
1,
0,
0,
0,
0,
0,
0,
0,
0,
0,
0,
0,
0,
0,
0,
0,
0,
0,
0,
0,
0,
0,
0,
0,
0,
0,
0,
0,
0,
0,
0,
0,
0,
0,
0,
0,
0,
0,
0,
0,
0,
0,
0,
0,
0,
0,
0,
0,
0,
0,
0,
0,
0,
0,
0,
0,
0,
0,
0,
0,
0,
0,
0,
0,
0,
0,
0,
0,
0,
0,
0,
0,
0,
0,
0,
0,
0,
0,
0,
0,
0,
0,
0,
0,
0,
0,
0,
0,
0,
0,
0,
0,
0,
0,
0,
0,
0,
0,
0,
0,
0,
0,
0,
0,
0,
0,
0,
0,
0,
0,
0,
0,
0,
0,
0,
0,
0,
0,
0,
0,
0,
0,
0,
0,
0,
0,
0,
0,
0,
0,
0,
0,
0,
0,
0,
0,
0,
0,
0,
0,
0,
0,
0,
0,
0,
0,
0,
0,
0,
0,
0,
0,
0,
0,
0,
0,
0,
0,
0,
0,
0,
0,
0,
0,
0,
0,
0,
0,
0,
0,
0,
0,
0,
0,
0,
0,
0,
0,
0,
0,
0,
0,
0,
0,
0,
0,
0,
0,
0,
0,
0,
0,
0,
0,
0,
0,
0,
1,
0,
0,
0,
0,
0,
0,
0,
0,
0,
0,
0,
0,
0,
0,
0,
0,
0,
0,
0,
0,
0,
0,
0,
0,
0,
0,
0,
0,
0,
0,
0,
0,
0,
0,
0,
0,
0,
0,
0,
0,
0,
0,
0,
0,
0,
0,
0,
0,
0,
0,
0,
0,
0,
0,
0,
0,
0,
0,
0,
0,
0,
0,
0,
0,
0,
0,
0,
0,
0,
0,
0,
0,
0,
0,
0,
0,
0,
0,
0,
0,
0,
0,
0,
0,
0,
0,
0,
0,
0,
0,
0,
0,
0,
0,
0,
0,
0,
0,
0,
0,
0,
0,
0,
0,
0,
0,
0,
0,
0,
0,
0,
0,
0,
0,
0,
0,
0,
0,
0,
0,
0,
0,
0,
0,
0,
0,
0,
0,
0,
0,
0,
0,
0,
0,
0,
0,
0,
0,
0,
0,
0,
0,
0,
0,
0,
0,
0,
0,
0,
0,
0,
0,
0,
0,
0,
0,
0,
0,
0,
0,
0,
0,
0,
0,
0,
0,
0,
0,
0,
0,
0,
0,
0,
0,
0,
0,
0,
0,
0,
0,
0,
0,
0,
0,
0,
0,
0,
0,
0,
0,
0,
0,
0,
0,
0,
0,
0,
0,
0,
0,
0,
0,
0,
0,
0,
0,
0,
#ENDOFDATA   :