File: NeXLParticle/Zeppelin/Standards/W std.msa
#FORMAT      : EMSA/MAS Spectral Data File
#VERSION     : 1.0
#TITLE       : W std
#DATE        : 11-OCT-2018
#TIME        : 01:14
#OWNER       : Unknown
#NPOINTS     : 4096
#NCOLUMNS    : 1
#XUNITS      : eV
#YUNITS      : counts
#DATATYPE    : Y
#XPERCHAN    : 9.99856
#OFFSET      : 1.63032
#BEAMKV      : 20
#SIGNALTYPE  : EDS
#ELEVANGLE   : 35
#AZIMANGLE   : 0
#LIVETIME    : 1123.9
#REALTIME    : 1695.37
#PROBECUR    : 0.97513
#TDEADLYR    : 0
#TACTLYR     : 0.045
#TALWIND     : 0.003
#CHOFFSET    : 0.0
#XLABEL      : Energy (eV)
#YLABEL      : Counts
#EDSDET      : SDUTW
##SPECIMEN   : W std
##D2STDCMP   : W,(W:100.0),5.0
##DET_HASH   : 97086dfe-e5c2-9c77-3984-1d0b14bbbf41
##CALIB_HASH : 1a36e884-c26d-3547-51b1-d0bb2efdf95a
##WORKING    : 17.0 mm
##SAMPLE     : <BulkSample id="1">\n<mOrientation id="2">\n<double>0.0</double>\n<double>0.0</double>\n<double>-1.0</double>\n</mOrientation>\n</BulkSample>
#SPECTRUM    :
190813,
43852,
4029,
680,
166,
269,
1452,
5430,
15995,
26081,
17150,
11687,
12924,
14237,
15325,
18211,
24640,
33377,
30494,
24209,
24701,
26935,
30224,
34196,
36568,
37933,
40096,
43011,
45624,
48581,
51014,
53564,
56314,
59070,
61689,
63580,
64738,
66770,
69216,
70110,
72211,
73604,
75394,
80554,
105569,
170517,
222776,
187932,
127325,
100215,
90567,
84867,
82932,
82977,
90032,
107711,
167649,
461452,
1321535,
2250374,
2206328,
1504822,
815001,
315293,
99408,
50061,
52676,
67369,
74013,
60205,
43746,
36514,
35173,
35987,
36777,
38759,
42212,
45507,
44682,
40695,
37432,
35649,
34104,
34067,
33848,
34046,
33777,
33714,
33535,
33904,
34598,
35258,
35415,
36109,
35493,
35199,
34941,
35046,
35147,
35457,
35975,
36113,
36123,
36134,
36798,
37157,
37434,
37530,
37528,
37436,
36870,
37601,
37299,
37807,
37720,
38148,
38707,
40172,
41579,
42663,
42358,
41321,
40339,
39055,
38635,
38016,
38176,
37894,
38048,
38296,
37799,
37621,
37786,
37659,
37632,
37700,
38042,
38279,
38296,
37932,
37544,
37142,
37190,
37080,
37011,
37004,
37203,
37111,
36666,
36588,
36702,
36381,
36317,
36030,
36315,
35990,
35837,
35911,
36017,
35795,
35725,
35170,
35144,
34877,
35628,
35134,
34805,
34940,
34760,
34622,
34094,
34344,
34017,
34280,
34067,
33906,
33973,
34108,
34204,
34878,
34999,
35074,
34563,
33673,
33106,
32767,
32350,
32469,
31937,
31810,
31679,
31596,
31299,
31231,
31010,
31067,
31101,
31215,
31432,
31111,
30333,
30368,
29999,
29896,
29768,
29863,
29365,
29165,
29212,
29527,
29931,
31208,
32822,
33560,
33177,
32133,
30295,
29105,
28238,
28032,
28204,
28223,
27913,
27538,
27448,
27410,
26650,
26917,
26644,
26213,
26423,
26160,
26298,
26271,
26394,
26446,
26087,
25838,
25357,
25590,
25528,
25750,
26956,
28808,
31726,
34955,
37723,
37293,
34424,
31068,
27783,
25795,
24500,
23971,
23872,
23801,
23517,
23278,
23167,
23131,
22895,
22896,
22881,
22824,
22915,
22701,
22417,
22649,
22382,
22619,
22774,
22916,
24066,
27309,
34835,
53188,
89882,
146463,
214044,
271235,
285937,
249948,
184576,
116810,
67333,
39480,
27674,
22932,
22340,
22001,
22336,
22493,
21691,
21251,
19836,
19370,
18996,
18849,
18894,
18401,
18866,
18474,
18414,
18227,
18347,
18181,
18153,
18158,
18060,
17786,
17801,
17823,
18271,
19574,
21005,
23996,
28519,
34390,
44260,
59273,
78760,
98871,
110854,
108073,
93566,
74479,
56794,
47055,
44744,
48839,
55701,
62097,
64341,
58782,
48865,
37164,
27867,
22013,
19272,
18018,
17371,
16587,
15915,
14907,
14204,
13754,
13400,
13025,
13027,
13126,
13071,
13121,
13021,
12828,
12649,
12615,
12291,
12089,
12347,
12271,
12134,
12161,
12416,
12153,
12405,
12233,
12208,
12250,
11917,
11737,
12632,
13112,
15434,
18231,
21552,
24780,
26107,
25013,
22310,
18824,
15965,
14035,
12848,
12774,
13008,
13423,
14109,
14588,
14415,
14077,
13377,
12681,
11413,
10720,
10368,
9955,
9699,
9589,
9689,
9596,
9715,
9864,
9759,
9580,
9499,
9155,
8987,
8835,
8510,
8589,
8546,
8431,
8463,
8333,
8514,
8325,
8025,
8329,
8316,
8260,
8248,
8330,
8229,
7935,
7911,
7877,
7595,
7661,
7535,
7409,
7366,
7318,
7294,
7250,
7243,
7402,
7220,
7149,
6890,
6900,
6983,
6691,
6827,
6747,
6646,
6665,
6497,
6608,
6425,
6514,
6409,
6402,
6430,
6269,
6202,
6133,
6175,
5976,
5956,
5897,
5791,
5819,
5861,
5812,
5653,
5655,
5723,
5550,
5467,
5504,
5425,
5362,
5315,
5258,
5222,
5133,
5160,
5067,
5036,
4928,
4923,
4910,
4936,
4818,
4831,
4680,
4689,
4685,
4509,
4562,
4594,
4513,
4449,
4412,
4351,
4426,
4230,
4252,
4173,
4084,
4180,
4108,
3994,
4015,
4004,
3890,
3872,
3733,
3708,
3721,
3777,
3778,
3711,
3645,
3455,
3471,
3507,
3389,
3495,
3391,
3374,
3316,
3289,
3238,
3220,
3155,
3176,
3127,
3101,
3021,
3031,
3014,
3021,
2928,
2833,
2859,
2829,
2836,
2681,
2710,
2801,
2678,
2597,
2614,
2588,
2525,
2369,
2414,
2485,
2462,
2407,
2356,
2353,
2341,
2271,
2293,
2167,
2280,
2231,
2118,
2150,
2126,
2045,
2007,
2027,
1968,
1915,
1908,
1881,
1846,
1893,
1816,
1817,
1755,
1757,
1760,
1706,
1716,
1593,
1588,
1578,
1663,
1561,
1540,
1470,
1487,
1486,
1427,
1439,
1366,
1388,
1342,
1264,
1332,
1216,
1304,
1173,
1181,
1193,
1196,
1209,
1118,
1082,
1201,
1048,
1075,
1064,
1048,
954,
1019,
942,
967,
879,
929,
914,
861,
782,
855,
756,
774,
709,
747,
749,
643,
687,
619,
630,
656,
612,
642,
613,
600,
563,
540,
517,
474,
481,
492,
446,
419,
412,
421,
419,
390,
356,
373,
330,
346,
374,
315,
305,
276,
292,
306,
284,
265,
208,
215,
212,
174,
175,
169,
103,
113,
90,
92,
61,
60,
54,
38,
29,
22,
29,
33,
29,
19,
24,
15,
19,
17,
19,
29,
18,
12,
21,
13,
19,
18,
23,
18,
22,
21,
16,
13,
18,
20,
12,
19,
17,
24,
17,
22,
17,
14,
11,
18,
24,
15,
13,
20,
15,
12,
21,
14,
12,
9,
13,
6,
10,
7,
13,
10,
6,
8,
12,
8,
7,
8,
18,
7,
13,
9,
13,
9,
5,
6,
9,
7,
9,
11,
7,
9,
6,
10,
9,
7,
3,
10,
9,
6,
8,
6,
12,
7,
10,
8,
7,
4,
3,
7,
5,
6,
11,
6,
4,
7,
11,
4,
5,
6,
5,
6,
6,
6,
5,
3,
13,
6,
9,
3,
11,
8,
5,
2,
6,
5,
3,
6,
4,
7,
8,
3,
8,
2,
7,
6,
9,
2,
6,
6,
2,
6,
5,
6,
6,
5,
4,
7,
2,
4,
12,
5,
5,
4,
4,
3,
5,
3,
4,
3,
4,
3,
0,
1,
4,
1,
4,
0,
2,
4,
2,
3,
3,
2,
3,
2,
1,
2,
3,
1,
0,
2,
0,
3,
1,
5,
2,
1,
4,
5,
6,
1,
2,
2,
2,
1,
4,
2,
1,
2,
0,
3,
4,
2,
0,
1,
1,
1,
2,
1,
4,
0,
2,
0,
2,
1,
1,
1,
2,
1,
4,
4,
2,
2,
0,
1,
2,
0,
2,
0,
4,
2,
4,
0,
1,
2,
1,
0,
2,
1,
1,
2,
1,
1,
0,
2,
0,
0,
2,
1,
0,
1,
1,
2,
1,
1,
0,
2,
2,
0,
0,
0,
0,
1,
1,
0,
0,
0,
2,
1,
0,
0,
2,
0,
4,
0,
1,
0,
0,
1,
1,
0,
1,
1,
0,
0,
1,
2,
0,
0,
0,
0,
2,
1,
0,
1,
0,
0,
0,
0,
0,
1,
1,
0,
0,
1,
0,
0,
0,
1,
0,
3,
0,
0,
0,
0,
0,
0,
0,
0,
0,
1,
0,
0,
2,
2,
0,
0,
0,
0,
1,
0,
0,
0,
1,
0,
0,
0,
0,
0,
0,
1,
0,
0,
0,
1,
1,
0,
1,
0,
0,
0,
0,
0,
0,
2,
1,
0,
0,
0,
0,
0,
0,
0,
0,
0,
0,
0,
0,
0,
0,
0,
0,
0,
0,
0,
0,
0,
0,
0,
0,
0,
0,
1,
0,
0,
0,
0,
0,
0,
0,
0,
0,
0,
0,
0,
0,
0,
0,
0,
0,
0,
0,
0,
0,
0,
0,
0,
0,
0,
1,
1,
0,
1,
0,
0,
0,
0,
0,
0,
0,
0,
0,
0,
0,
0,
0,
0,
0,
0,
0,
0,
0,
0,
0,
0,
0,
0,
0,
0,
0,
0,
0,
0,
0,
0,
0,
0,
0,
0,
0,
0,
0,
0,
0,
0,
0,
0,
0,
0,
0,
0,
0,
0,
1,
0,
0,
0,
0,
0,
0,
0,
0,
0,
0,
0,
0,
0,
0,
0,
0,
0,
0,
0,
0,
0,
0,
0,
0,
0,
0,
0,
0,
0,
0,
0,
0,
0,
0,
0,
0,
0,
0,
0,
0,
0,
0,
0,
0,
0,
0,
0,
0,
0,
0,
0,
0,
0,
0,
0,
0,
0,
0,
0,
0,
0,
0,
0,
0,
0,
0,
0,
0,
0,
0,
0,
0,
0,
0,
0,
0,
0,
0,
1,
0,
0,
0,
0,
0,
0,
0,
0,
0,
0,
0,
0,
0,
0,
0,
0,
0,
0,
0,
0,
0,
0,
0,
0,
0,
0,
0,
0,
0,
0,
0,
0,
0,
0,
0,
0,
0,
0,
0,
0,
0,
0,
0,
0,
0,
0,
0,
0,
0,
0,
0,
0,
0,
0,
0,
0,
0,
0,
0,
0,
0,
0,
0,
0,
0,
0,
0,
0,
0,
0,
0,
0,
0,
0,
0,
0,
0,
0,
0,
0,
0,
0,
0,
0,
0,
0,
0,
0,
0,
0,
0,
0,
0,
0,
0,
0,
0,
0,
0,
0,
0,
0,
0,
0,
0,
0,
0,
0,
0,
0,
0,
0,
0,
0,
0,
0,
0,
0,
0,
0,
0,
0,
0,
0,
0,
0,
0,
0,
0,
0,
0,
0,
0,
0,
0,
0,
0,
0,
0,
0,
0,
0,
0,
0,
0,
0,
0,
0,
0,
0,
0,
0,
0,
0,
0,
0,
0,
0,
0,
0,
0,
0,
#ENDOFDATA   :