File: NeXLSpectrum/Zepellin/Standards/Al std.msa
#FORMAT      : EMSA/MAS Spectral Data File
#VERSION     : 1.0
#TITLE       : Al std
#DATE        : 11-OCT-2018
#TIME        : 11:56
#OWNER       : Unknown
#NPOINTS     : 4096
#NCOLUMNS    : 1
#XUNITS      : eV
#YUNITS      : counts
#DATATYPE    : Y
#XPERCHAN    : 9.99856
#OFFSET      : 1.63032
#BEAMKV      : 20
#SIGNALTYPE  : EDS
#ELEVANGLE   : 35
#AZIMANGLE   : 0
#LIVETIME    : 1151.25
#REALTIME    : 1808.52
#PROBECUR    : 0.97396
#TDEADLYR    : 0
#TACTLYR     : 0.045
#TALWIND     : 0.003
#CHOFFSET    : 0.0
#XLABEL      : Energy (eV)
#YLABEL      : Counts
#EDSDET      : SDUTW
##SPECIMEN   : Al std
##D2STDCMP   : Al,(Al:100.0),1.0
##DET_HASH   : 97086dfe-e5c2-9c77-3984-1d0b14bbbf41
##CALIB_HASH : 1a36e884-c26d-3547-51b1-d0bb2efdf95a
##WORKING    : 17.0 mm
##SAMPLE     : <BulkSample id="1">\n<mOrientation id="2">\n<double>0.0</double>\n<double>0.0</double>\n<double>-1.0</double>\n</mOrientation>\n</BulkSample>
#SPECTRUM    :
199436,
41203,
2688,
348,
139,
171,
450,
1766,
6003,
10524,
7849,
6384,
7175,
8060,
9469,
13649,
29944,
57437,
46912,
21639,
16821,
19589,
23793,
26197,
26679,
28670,
30663,
32765,
35219,
37149,
38776,
40640,
42123,
43719,
45593,
46676,
48009,
49932,
51830,
54602,
58885,
63455,
70930,
78608,
88587,
100376,
156085,
682407,
3175571,
7377194,
7680570,
3682457,
969389,
213886,
52746,
17777,
11697,
11234,
11912,
11705,
11080,
10858,
10647,
10812,
11279,
11606,
12271,
12941,
12813,
12514,
12613,
12705,
13134,
13202,
13483,
13402,
13779,
13854,
13692,
13968,
13966,
14122,
14329,
14369,
14545,
14534,
14699,
14441,
15074,
14909,
14516,
14918,
15038,
14989,
15342,
15889,
18977,
29143,
48798,
64058,
58537,
38565,
23495,
16658,
14436,
13699,
13630,
13578,
13461,
13456,
13414,
13267,
13359,
13106,
13129,
13244,
13139,
12934,
13020,
12852,
13082,
12968,
12664,
12844,
12745,
12417,
12435,
12465,
12116,
12007,
12243,
12037,
11831,
12025,
11863,
11727,
11642,
11389,
11510,
11297,
11420,
11250,
11295,
11154,
10926,
10782,
10754,
10992,
11023,
10951,
10843,
10459,
10347,
10342,
10284,
10147,
10315,
10119,
9841,
9906,
9725,
9829,
9575,
9748,
9457,
9548,
9213,
9318,
9222,
9201,
9079,
9118,
8973,
8728,
8765,
8713,
8579,
8693,
8513,
8586,
8745,
8346,
8496,
8295,
8130,
8123,
8032,
8036,
7978,
7827,
7777,
7910,
7533,
7632,
7597,
7507,
7574,
7510,
7380,
7314,
7222,
7132,
7139,
7172,
6982,
6863,
6822,
6856,
6805,
6677,
6592,
6695,
6870,
6796,
6857,
6701,
6558,
6429,
6277,
6191,
6136,
6155,
6142,
6089,
6164,
5898,
5906,
5996,
5834,
5846,
5813,
5678,
5889,
5679,
5639,
5647,
5594,
5519,
5527,
5362,
5425,
5316,
5302,
5330,
5216,
5198,
5055,
5184,
5061,
5056,
4947,
4969,
4903,
4849,
4785,
4685,
4798,
4711,
4656,
4540,
4690,
4495,
4502,
4531,
4506,
4534,
4493,
4343,
4371,
4244,
4381,
4296,
4285,
4182,
4159,
4173,
4202,
4062,
4142,
3958,
3901,
3910,
3898,
3900,
3853,
3881,
3796,
3995,
3772,
3756,
3763,
3707,
3570,
3589,
3588,
3572,
3539,
3514,
3477,
3521,
3513,
3383,
3387,
3463,
3391,
3287,
3350,
3278,
3300,
3227,
3178,
3239,
3214,
3068,
3152,
3145,
3040,
3099,
2880,
3076,
2975,
2943,
2990,
2952,
2996,
2878,
2956,
2805,
2792,
2769,
2758,
2849,
2676,
2662,
2728,
2671,
2670,
2557,
2673,
2543,
2609,
2515,
2529,
2467,
2440,
2564,
2534,
2398,
2436,
2379,
2469,
2472,
2395,
2399,
2496,
2318,
2208,
2289,
2201,
2262,
2224,
2190,
2095,
2029,
2122,
2091,
2098,
2136,
2083,
2056,
2092,
2053,
1924,
1920,
2013,
1944,
2026,
1984,
1882,
1893,
1909,
1889,
1803,
1822,
1834,
1826,
1777,
1694,
1731,
1726,
1740,
1697,
1684,
1679,
1513,
1628,
1701,
1642,
1610,
1581,
1591,
1527,
1564,
1523,
1435,
1471,
1539,
1479,
1449,
1474,
1409,
1433,
1432,
1361,
1444,
1389,
1346,
1359,
1399,
1376,
1380,
1323,
1331,
1306,
1290,
1257,
1173,
1217,
1206,
1197,
1234,
1183,
1177,
1155,
1174,
1042,
1064,
1156,
1056,
1138,
1100,
1042,
1029,
1037,
1073,
991,
1009,
1016,
994,
946,
954,
973,
966,
903,
950,
912,
909,
928,
859,
833,
844,
865,
802,
794,
838,
828,
804,
781,
796,
760,
766,
805,
754,
764,
752,
718,
730,
793,
731,
654,
678,
714,
688,
655,
650,
658,
654,
625,
614,
605,
618,
628,
624,
608,
568,
604,
550,
516,
592,
543,
577,
541,
570,
513,
520,
517,
488,
467,
472,
496,
495,
434,
498,
423,
471,
458,
455,
449,
444,
386,
412,
429,
426,
404,
391,
396,
395,
384,
376,
373,
388,
356,
319,
327,
343,
374,
337,
325,
321,
334,
326,
287,
294,
303,
320,
322,
296,
269,
285,
297,
285,
249,
240,
258,
225,
223,
247,
220,
233,
218,
200,
233,
209,
250,
199,
203,
187,
186,
189,
208,
189,
171,
165,
189,
198,
160,
184,
193,
187,
175,
155,
150,
175,
150,
134,
158,
137,
132,
144,
117,
121,
131,
118,
124,
126,
122,
116,
114,
112,
121,
131,
80,
107,
85,
100,
87,
95,
91,
98,
87,
72,
81,
69,
79,
77,
92,
90,
63,
64,
67,
65,
69,
50,
62,
51,
59,
60,
54,
39,
47,
43,
41,
49,
42,
37,
33,
47,
33,
31,
39,
34,
27,
29,
37,
27,
19,
28,
19,
18,
21,
31,
12,
20,
14,
20,
14,
16,
16,
8,
13,
6,
3,
9,
6,
5,
4,
5,
1,
2,
2,
3,
0,
3,
4,
3,
1,
0,
1,
1,
0,
0,
1,
0,
3,
0,
3,
1,
1,
1,
0,
2,
0,
0,
1,
1,
1,
0,
0,
0,
1,
0,
0,
0,
0,
0,
0,
0,
0,
1,
0,
0,
0,
0,
0,
0,
2,
0,
0,
0,
1,
0,
1,
0,
0,
1,
0,
0,
0,
0,
1,
0,
0,
1,
0,
0,
0,
0,
1,
0,
0,
0,
0,
0,
0,
0,
0,
0,
2,
0,
0,
0,
0,
0,
0,
1,
0,
0,
0,
0,
1,
0,
0,
0,
0,
0,
0,
0,
0,
0,
0,
0,
0,
0,
0,
0,
0,
0,
0,
0,
0,
0,
0,
0,
0,
0,
0,
1,
0,
0,
0,
0,
0,
1,
0,
0,
0,
0,
0,
0,
0,
0,
0,
0,
0,
0,
0,
0,
0,
0,
0,
1,
0,
0,
0,
0,
0,
0,
0,
0,
0,
0,
0,
0,
0,
0,
0,
0,
0,
0,
0,
0,
0,
0,
0,
0,
0,
0,
0,
0,
0,
0,
0,
0,
0,
0,
0,
0,
0,
0,
0,
0,
0,
0,
0,
0,
0,
0,
0,
0,
0,
0,
0,
0,
0,
0,
0,
0,
0,
0,
0,
0,
0,
0,
0,
0,
0,
0,
0,
0,
0,
0,
0,
0,
0,
0,
0,
0,
0,
0,
0,
0,
0,
0,
0,
0,
0,
0,
0,
0,
0,
0,
0,
0,
0,
0,
0,
0,
0,
0,
1,
0,
0,
0,
0,
0,
0,
0,
0,
0,
0,
0,
0,
0,
0,
0,
0,
0,
0,
0,
0,
0,
0,
0,
0,
0,
0,
0,
0,
0,
0,
0,
0,
0,
0,
0,
0,
0,
0,
0,
0,
0,
0,
0,
0,
0,
0,
0,
0,
0,
0,
0,
0,
0,
0,
0,
0,
0,
0,
0,
0,
0,
0,
0,
0,
0,
0,
0,
0,
0,
0,
0,
0,
0,
0,
0,
0,
0,
0,
0,
0,
0,
0,
0,
0,
0,
0,
0,
0,
0,
0,
0,
0,
0,
0,
0,
0,
0,
0,
0,
0,
0,
0,
0,
0,
0,
0,
0,
0,
0,
0,
0,
0,
0,
0,
0,
0,
0,
0,
0,
0,
0,
0,
0,
0,
0,
0,
0,
0,
0,
0,
0,
0,
0,
0,
0,
0,
0,
0,
0,
0,
0,
0,
0,
0,
0,
0,
0,
0,
0,
0,
0,
0,
0,
0,
0,
0,
0,
0,
0,
0,
0,
0,
0,
0,
0,
0,
0,
0,
0,
0,
0,
0,
0,
0,
0,
0,
0,
1,
0,
0,
0,
0,
0,
0,
0,
0,
0,
0,
0,
0,
0,
0,
0,
0,
0,
0,
0,
0,
0,
0,
0,
0,
0,
0,
0,
0,
0,
0,
0,
0,
0,
0,
0,
0,
0,
0,
0,
0,
0,
0,
0,
0,
0,
0,
0,
0,
0,
0,
0,
0,
0,
0,
0,
0,
0,
0,
0,
0,
0,
0,
0,
0,
0,
0,
0,
0,
0,
0,
0,
0,
0,
0,
0,
0,
0,
0,
0,
0,
0,
0,
0,
0,
0,
0,
0,
0,
0,
0,
0,
0,
0,
0,
0,
0,
0,
0,
0,
0,
0,
0,
0,
0,
0,
0,
0,
0,
0,
0,
0,
0,
0,
0,
0,
0,
0,
0,
0,
0,
0,
0,
0,
0,
0,
0,
0,
0,
0,
0,
0,
0,
0,
0,
0,
0,
0,
0,
0,
0,
0,
0,
0,
0,
0,
0,
0,
0,
0,
0,
0,
0,
0,
0,
0,
0,
0,
0,
0,
0,
0,
0,
0,
0,
0,
0,
0,
0,
0,
0,
0,
0,
0,
0,
0,
0,
0,
0,
0,
0,
0,
0,
0,
0,
0,
0,
0,
0,
0,
0,
0,
0,
0,
0,
0,
0,
0,
0,
0,
0,
0,
0,
0,
0,
0,
0,
0,
0,
0,
0,
0,
0,
0,
0,
0,
0,
0,
0,
0,
0,
0,
0,
0,
0,
0,
0,
0,
0,
0,
0,
0,
0,
0,
0,
0,
0,
0,
0,
0,
0,
0,
0,
0,
0,
0,
0,
0,
0,
0,
0,
0,
0,
0,
0,
0,
0,
0,
0,
0,
0,
0,
0,
0,
0,
0,
0,
0,
0,
0,
0,
0,
0,
0,
0,
0,
0,
0,
0,
#ENDOFDATA   :