File: NeXLSpectrum/Zepellin/Standards/C std.msa
#FORMAT      : EMSA/MAS Spectral Data File
#VERSION     : 1.0
#TITLE       : C std
#DATE        : 11-OCT-2018
#TIME        : 11:35
#OWNER       : Unknown
#NPOINTS     : 4096
#NCOLUMNS    : 1
#XUNITS      : eV
#YUNITS      : counts
#DATATYPE    : Y
#XPERCHAN    : 9.99856
#OFFSET      : 1.63032
#BEAMKV      : 20
#SIGNALTYPE  : EDS
#ELEVANGLE   : 35
#AZIMANGLE   : 0
#LIVETIME    : 1184.6
#REALTIME    : 1332.33
#PROBECUR    : 0.97372
#TDEADLYR    : 0
#TACTLYR     : 0.045
#TALWIND     : 0.003
#CHOFFSET    : 0.0
#XLABEL      : Energy (eV)
#YLABEL      : Counts
#EDSDET      : SDUTW
##SPECIMEN   : C std
##D2STDCMP   : C,(C:100.0),1.9
##DET_HASH   : 97086dfe-e5c2-9c77-3984-1d0b14bbbf41
##CALIB_HASH : 1a36e884-c26d-3547-51b1-d0bb2efdf95a
##WORKING    : 17.0 mm
##SAMPLE     : <BulkSample id="1">\n<mOrientation id="2">\n<double>0.0</double>\n<double>0.0</double>\n<double>-1.0</double>\n</mOrientation>\n</BulkSample>
#SPECTRUM    :
194774,
33499,
2061,
830,
876,
1073,
7108,
119926,
886241,
1608757,
647895,
70241,
10717,
8323,
7915,
8705,
12252,
18128,
15960,
7335,
3811,
3862,
4830,
5298,
5554,
5865,
6374,
7079,
7636,
8477,
8790,
9606,
10302,
11177,
12336,
12659,
12903,
13088,
13550,
13966,
14283,
14859,
15145,
15386,
15432,
15496,
15430,
16010,
16039,
16302,
16673,
15770,
15603,
15348,
15455,
16595,
18647,
19273,
19001,
17384,
15915,
15097,
13972,
13288,
13513,
13511,
13069,
12837,
12796,
12713,
12744,
12619,
12339,
12152,
12053,
12283,
12061,
12154,
11768,
11468,
11244,
11082,
10603,
10554,
10387,
10428,
10085,
10112,
9867,
9897,
9860,
9469,
9379,
9355,
9242,
9039,
8993,
8938,
8642,
8635,
8443,
8405,
8233,
8127,
8122,
8059,
7925,
7760,
7769,
7567,
7556,
7457,
7389,
7425,
7300,
7058,
7111,
6934,
6808,
6852,
6691,
6600,
6502,
6386,
6338,
6283,
6316,
6091,
6206,
5980,
5827,
5710,
5855,
5790,
5696,
5747,
5496,
5457,
5629,
5475,
5178,
5137,
5164,
5157,
5045,
4963,
4795,
4822,
4826,
4795,
4773,
4700,
4690,
4523,
4526,
4379,
4364,
4293,
4370,
4327,
4245,
4120,
4097,
4083,
4126,
4042,
3898,
3932,
3902,
3864,
3828,
3857,
3824,
3635,
3626,
3653,
3591,
3637,
3623,
3691,
3686,
3790,
3694,
3419,
3444,
3353,
3244,
3198,
3237,
3203,
3090,
3099,
3139,
3089,
3026,
3117,
3054,
3014,
2957,
2939,
2885,
2806,
2681,
2784,
2775,
2727,
2687,
2680,
2757,
2812,
2900,
2943,
3104,
3213,
3157,
2920,
2718,
2565,
2520,
2425,
2485,
2367,
2397,
2467,
2295,
2204,
2236,
2271,
2175,
2219,
2190,
2178,
2223,
2289,
2174,
2226,
2172,
2145,
2063,
2071,
2005,
2000,
1959,
1939,
1960,
1962,
1941,
1976,
1851,
1907,
1876,
1812,
1880,
1760,
1828,
1700,
1806,
1681,
1759,
1719,
1713,
1657,
1740,
1666,
1664,
1652,
1671,
1646,
1577,
1647,
1567,
1639,
1536,
1481,
1517,
1621,
1506,
1465,
1462,
1476,
1537,
1400,
1360,
1369,
1365,
1397,
1455,
1411,
1329,
1365,
1314,
1277,
1312,
1292,
1295,
1282,
1273,
1239,
1247,
1213,
1289,
1293,
1319,
1183,
1212,
1214,
1251,
1167,
1183,
1197,
1139,
1150,
1131,
1075,
1119,
1078,
1064,
1068,
1097,
1050,
984,
1032,
1047,
1054,
1010,
1001,
1069,
986,
975,
922,
957,
925,
873,
942,
944,
917,
911,
966,
892,
882,
975,
904,
894,
867,
844,
850,
865,
853,
856,
822,
803,
828,
859,
797,
766,
805,
792,
747,
741,
811,
728,
758,
731,
683,
693,
676,
766,
737,
722,
720,
680,
672,
651,
657,
654,
711,
598,
624,
647,
638,
660,
635,
584,
641,
640,
648,
608,
539,
586,
568,
553,
545,
525,
546,
563,
546,
549,
554,
574,
528,
545,
536,
496,
487,
522,
508,
469,
446,
486,
479,
476,
459,
448,
437,
475,
394,
438,
457,
468,
426,
430,
439,
440,
434,
420,
401,
452,
449,
355,
394,
354,
359,
375,
366,
392,
355,
368,
350,
343,
364,
416,
364,
344,
400,
436,
428,
434,
387,
400,
370,
333,
332,
305,
278,
295,
254,
312,
281,
288,
250,
290,
266,
289,
290,
256,
242,
268,
255,
259,
241,
234,
219,
246,
242,
227,
219,
212,
218,
197,
239,
240,
200,
207,
209,
215,
198,
175,
170,
172,
201,
179,
200,
202,
192,
199,
206,
197,
196,
184,
192,
184,
161,
158,
132,
171,
147,
149,
169,
144,
153,
144,
130,
139,
154,
120,
148,
134,
139,
108,
121,
141,
129,
121,
117,
120,
105,
113,
126,
121,
109,
94,
100,
109,
95,
95,
96,
110,
92,
88,
84,
93,
101,
80,
67,
93,
83,
97,
85,
77,
85,
84,
89,
82,
74,
85,
88,
78,
69,
72,
77,
59,
64,
76,
68,
58,
60,
67,
50,
47,
53,
58,
53,
46,
44,
53,
51,
65,
58,
50,
57,
58,
45,
48,
51,
38,
24,
41,
45,
38,
57,
32,
44,
30,
35,
50,
38,
28,
27,
32,
27,
33,
32,
17,
31,
25,
27,
26,
23,
26,
24,
31,
31,
34,
28,
19,
31,
12,
18,
20,
24,
23,
15,
11,
16,
22,
12,
11,
15,
17,
12,
14,
20,
12,
15,
12,
12,
7,
10,
8,
8,
11,
7,
9,
11,
8,
9,
10,
9,
10,
7,
5,
5,
3,
6,
5,
3,
2,
6,
8,
6,
1,
2,
3,
1,
1,
1,
0,
1,
2,
1,
0,
0,
0,
0,
1,
0,
0,
0,
0,
0,
0,
0,
0,
0,
0,
0,
0,
0,
0,
0,
0,
1,
0,
0,
0,
0,
0,
0,
0,
0,
0,
0,
0,
0,
0,
0,
0,
0,
0,
0,
0,
0,
0,
0,
0,
0,
0,
0,
0,
1,
0,
0,
0,
1,
0,
0,
0,
0,
0,
0,
0,
0,
0,
1,
0,
0,
1,
0,
0,
0,
0,
0,
0,
0,
0,
0,
0,
0,
0,
0,
0,
0,
0,
0,
0,
0,
0,
0,
0,
0,
0,
0,
0,
0,
0,
0,
0,
0,
0,
0,
0,
0,
0,
0,
0,
0,
0,
0,
0,
0,
0,
0,
0,
0,
0,
0,
0,
0,
0,
0,
0,
0,
0,
0,
0,
0,
0,
0,
0,
0,
0,
0,
0,
0,
0,
0,
0,
0,
0,
0,
0,
0,
0,
0,
0,
0,
0,
0,
0,
0,
0,
0,
0,
0,
0,
0,
0,
0,
0,
0,
0,
0,
0,
0,
0,
0,
0,
0,
0,
0,
0,
0,
0,
0,
0,
0,
0,
0,
0,
0,
0,
0,
0,
0,
0,
0,
0,
0,
0,
0,
0,
0,
0,
0,
0,
0,
0,
0,
0,
0,
0,
0,
0,
0,
0,
0,
0,
0,
0,
0,
0,
0,
0,
0,
0,
0,
0,
0,
0,
0,
0,
0,
0,
0,
0,
0,
0,
0,
0,
0,
0,
0,
0,
0,
0,
0,
0,
0,
0,
0,
0,
0,
0,
0,
0,
0,
0,
0,
0,
0,
0,
0,
0,
0,
0,
0,
0,
0,
0,
0,
0,
0,
0,
0,
0,
0,
0,
0,
0,
0,
0,
0,
0,
0,
0,
0,
0,
0,
0,
0,
0,
0,
0,
0,
0,
0,
0,
0,
0,
0,
0,
0,
0,
0,
0,
0,
0,
0,
0,
0,
0,
0,
0,
0,
0,
0,
0,
0,
0,
0,
0,
0,
0,
0,
0,
0,
0,
0,
0,
0,
0,
0,
0,
0,
0,
0,
0,
0,
0,
0,
0,
0,
0,
0,
0,
0,
0,
0,
0,
0,
0,
0,
0,
0,
0,
0,
0,
0,
0,
0,
0,
0,
0,
0,
0,
0,
0,
0,
0,
0,
0,
0,
0,
0,
0,
0,
0,
0,
0,
0,
0,
0,
0,
0,
0,
0,
0,
0,
0,
0,
0,
0,
0,
0,
0,
0,
0,
0,
0,
0,
0,
0,
0,
0,
0,
0,
0,
0,
0,
0,
0,
0,
0,
0,
0,
0,
0,
0,
0,
0,
0,
0,
0,
0,
0,
0,
0,
0,
0,
0,
0,
0,
0,
0,
0,
0,
0,
0,
0,
0,
0,
0,
0,
0,
0,
0,
0,
0,
0,
0,
0,
0,
0,
0,
0,
0,
0,
0,
0,
0,
0,
0,
0,
0,
0,
0,
0,
0,
0,
0,
0,
0,
0,
0,
0,
0,
0,
0,
0,
0,
0,
0,
0,
0,
0,
0,
0,
0,
0,
0,
0,
0,
0,
0,
0,
0,
0,
0,
0,
0,
0,
0,
0,
0,
0,
0,
0,
0,
0,
0,
0,
0,
0,
0,
0,
0,
0,
0,
0,
0,
0,
0,
0,
0,
0,
0,
0,
0,
0,
0,
0,
0,
0,
0,
0,
0,
0,
0,
0,
0,
0,
0,
0,
0,
0,
0,
0,
0,
0,
0,
0,
0,
0,
0,
0,
0,
0,
0,
0,
0,
0,
0,
0,
0,
0,
0,
0,
0,
0,
0,
0,
0,
0,
0,
0,
0,
0,
0,
0,
0,
0,
0,
0,
0,
0,
0,
0,
0,
0,
0,
0,
0,
0,
0,
0,
0,
0,
0,
0,
0,
0,
0,
0,
0,
0,
0,
0,
0,
0,
0,
0,
0,
0,
0,
0,
0,
0,
0,
0,
0,
0,
0,
0,
0,
0,
0,
0,
0,
0,
0,
0,
0,
0,
0,
0,
0,
0,
0,
0,
0,
0,
0,
0,
0,
0,
0,
0,
0,
0,
0,
0,
0,
0,
0,
0,
0,
0,
0,
0,
0,
0,
0,
0,
0,
0,
0,
0,
0,
0,
0,
0,
0,
0,
0,
0,
0,
0,
0,
0,
0,
0,
0,
0,
0,
0,
0,
0,
0,
0,
0,
0,
0,
0,
0,
0,
0,
0,
0,
0,
0,
0,
0,
0,
0,
0,
0,
#ENDOFDATA   :