File: NeXLSpectrum/Zepellin/Standards/Ce std.msa
#FORMAT      : EMSA/MAS Spectral Data File
#VERSION     : 1.0
#TITLE       : Trimmed[CeO2 std,419 eV,601 eV]
#DATE        : 15-OCT-2018
#TIME        : 00:01
#OWNER       : Unknown
#NPOINTS     : 4096
#NCOLUMNS    : 1
#XUNITS      : eV
#YUNITS      : counts
#DATATYPE    : Y
#XPERCHAN    : 9.99856
#OFFSET      : 1.63032
#BEAMKV      : 20
#SIGNALTYPE  : EDS
#ELEVANGLE   : 35
#AZIMANGLE   : 0
#LIVETIME    : 1171.78
#REALTIME    : 1518.83
#PROBECUR    : 0.98838
#TDEADLYR    : 0
#TACTLYR     : 0.045
#TALWIND     : 0.003
#CHOFFSET    : 0.0
#XLABEL      : Energy (eV)
#YLABEL      : Counts
#EDSDET      : SDUTW
##SPECIMEN   : Trimmed[CeO2 std,419 eV,601 eV]
##D2STDCMP   : CeO2,(O:18.5915),(Ce:81.4085),5.0
##DET_HASH   : 97086dfe-e5c2-9c77-3984-1d0b14bbbf41
##CALIB_HASH : 1a36e884-c26d-3547-51b1-d0bb2efdf95a
##WORKING    : 17.0 mm
##SAMPLE     : <BulkSample id="1">\n<mOrientation id="2">\n<double>0.0</double>\n<double>0.0</double>\n<double>-1.0</double>\n</mOrientation>\n</BulkSample>
#SPECTRUM    :
148893,
30885,
2562,
449,
205,
546,
2684,
10355,
31083,
47069,
27121,
17790,
20399,
23141,
25607.9,
28817.2,
32026.5,
35235.8,
38445.1,
41654.5,
43794,
77972,
131623,
118297,
63763,
42343,
41624,
55193,
100794,
151740,
129331,
64978,
32063,
26099,
28740,
39715,
45222,
40011,
38720,
38908,
33430,
29817,
27519,
26754,
27007,
27664,
28515,
29423,
30633,
31914,
32297,
31193,
30358,
30430,
30815,
31445,
33057,
34356,
35660,
36246,
35619,
34533,
33997,
33229,
33799,
34923,
35347,
36129,
36513,
36567,
36647,
37195,
36909,
37540,
37916,
37878,
38515,
37904,
38667,
38429,
38833,
38746,
39133,
39288,
39321,
39595,
39568,
39679,
39481,
39400,
39703,
39461,
39300,
39711,
39459,
39552,
38968,
39312,
39643,
39571,
39958,
40361,
42466,
43119,
42626,
40915,
39525,
38255,
38443,
38298,
38083,
37495,
37648,
37572,
37754,
37510,
37948,
38123,
38325,
37636,
36641,
36628,
36263,
36487,
36166,
35362,
35150,
35074,
35069,
35035,
34596,
34330,
33970,
33822,
33634,
33032,
33246,
33211,
33565,
34138,
37771,
44397,
53410,
58159,
54387,
45513,
38583,
33962,
32314,
31795,
31552,
31177,
31422,
32292,
32535,
35701,
43067,
65095,
131664,
281315,
499404,
671285,
653522,
461432,
246452,
108890,
51552,
35071,
31292,
30249,
32118,
40025,
67078,
130742,
228275,
316901,
334684,
277979,
196493,
133007,
92426,
65858,
48649,
42618,
50223,
75038,
108318,
131135,
125275,
96224,
62291,
39033,
27599,
23129,
21706,
21661,
21502,
22343,
25216,
32117,
43474,
54833,
59045,
53268,
40750,
29632,
23362,
21342,
23219,
26996,
31590,
34057,
32866,
29291,
25022,
21883,
20402,
19755,
19550,
18388,
17543,
16579,
16039,
15734,
15533,
15350,
15702,
15312,
15179,
15503,
15255,
15220,
15218,
15182,
15536,
15350,
15086,
15074,
14858,
14645,
14591,
14471,
14624,
14255,
14298,
14408,
14456,
14525,
14506,
14516,
14529,
14282,
13972,
14038,
13930,
13799,
13886,
13718,
13819,
13622,
13804,
13336,
13551,
13371,
13262,
13316,
13198,
13216,
13013,
12913,
12919,
12739,
12822,
12712,
12704,
12778,
12674,
12597,
12383,
12477,
12302,
12267,
12300,
12168,
11894,
12008,
12028,
12135,
11861,
12051,
11921,
11980,
11558,
11462,
11273,
11372,
11415,
11342,
11207,
11188,
11293,
11178,
11110,
10916,
10950,
10836,
10803,
10896,
10856,
10813,
10574,
10555,
10616,
10365,
10445,
10480,
10145,
10401,
10198,
10315,
10382,
10350,
10183,
10218,
10065,
9967,
9798,
9827,
9667,
9593,
9313,
9284,
9292,
9373,
9531,
9545,
9425,
9389,
9154,
9276,
9289,
8901,
8850,
8839,
8770,
8721,
8584,
8613,
8806,
8858,
8880,
8803,
8550,
8715,
8497,
8377,
8418,
8088,
8048,
7942,
7804,
8052,
7887,
7870,
7801,
7609,
7699,
7565,
7429,
7581,
7314,
7327,
7358,
7360,
7276,
7058,
7098,
7129,
6997,
7061,
7000,
6846,
6797,
6744,
6805,
6546,
6734,
6520,
6491,
6424,
6334,
6256,
6209,
6270,
6344,
6175,
6148,
6022,
5969,
5986,
6003,
5691,
5798,
5866,
5805,
5848,
5713,
5665,
5515,
5572,
5471,
5405,
5484,
5260,
5347,
5353,
5321,
5403,
5235,
5320,
5320,
5278,
5199,
5077,
4955,
4965,
4922,
4919,
4707,
4695,
4758,
4649,
4650,
4517,
4448,
4413,
4421,
4396,
4487,
4365,
4454,
4181,
4214,
4036,
4229,
4194,
4143,
4142,
3967,
3968,
3909,
3861,
3812,
3776,
3723,
3636,
3744,
3708,
3661,
3645,
3535,
3602,
3420,
3548,
3424,
3461,
3406,
3367,
3228,
3287,
3091,
3213,
3119,
3030,
3076,
3097,
3069,
3002,
3028,
2963,
3006,
2837,
2899,
2797,
2802,
2872,
2695,
2711,
2748,
2690,
2669,
2526,
2612,
2558,
2464,
2509,
2397,
2432,
2394,
2312,
2389,
2316,
2374,
2288,
2187,
2251,
2210,
2102,
2082,
2098,
2181,
2097,
2074,
2093,
2038,
1975,
1966,
1912,
1909,
1876,
1866,
1790,
1847,
1712,
1768,
1717,
1722,
1665,
1701,
1661,
1684,
1547,
1617,
1503,
1466,
1620,
1510,
1500,
1364,
1384,
1441,
1354,
1388,
1322,
1375,
1353,
1352,
1229,
1196,
1218,
1261,
1183,
1226,
1186,
1134,
1126,
1162,
1051,
1073,
1037,
999,
1085,
1005,
1039,
993,
983,
942,
979,
954,
922,
887,
898,
839,
839,
831,
825,
786,
780,
741,
794,
733,
716,
697,
703,
672,
678,
636,
638,
621,
595,
582,
550,
593,
517,
572,
541,
507,
549,
525,
473,
487,
472,
448,
454,
436,
419,
405,
384,
348,
377,
383,
372,
354,
345,
302,
305,
345,
287,
292,
294,
253,
228,
256,
241,
216,
250,
211,
205,
192,
142,
171,
166,
162,
145,
140,
132,
146,
124,
108,
82,
91,
77,
70,
57,
51,
51,
43,
50,
30,
24,
15,
12,
17,
14,
6,
12,
7,
14,
4,
9,
10,
9,
8,
5,
4,
9,
12,
8,
9,
8,
7,
5,
10,
8,
14,
11,
4,
4,
4,
4,
8,
3,
4,
5,
7,
11,
6,
2,
7,
5,
5,
5,
7,
4,
5,
5,
6,
5,
7,
7,
5,
3,
7,
5,
5,
4,
4,
5,
3,
4,
6,
4,
4,
2,
2,
9,
4,
4,
3,
7,
6,
4,
2,
2,
3,
7,
2,
1,
4,
5,
4,
5,
2,
1,
2,
4,
2,
2,
0,
1,
3,
3,
10,
1,
2,
3,
1,
2,
3,
2,
3,
2,
3,
4,
0,
3,
2,
3,
4,
1,
1,
2,
5,
2,
0,
1,
2,
3,
2,
2,
0,
2,
1,
2,
2,
2,
2,
1,
2,
2,
3,
1,
1,
0,
1,
0,
0,
0,
1,
2,
0,
0,
1,
2,
1,
0,
1,
1,
0,
1,
0,
2,
2,
1,
2,
2,
1,
2,
1,
1,
0,
0,
1,
0,
1,
1,
2,
0,
0,
1,
0,
1,
1,
2,
2,
1,
0,
2,
0,
2,
0,
0,
2,
1,
0,
0,
0,
0,
0,
0,
1,
0,
0,
1,
1,
0,
2,
1,
1,
0,
0,
0,
0,
0,
0,
0,
0,
1,
0,
0,
0,
0,
0,
0,
1,
1,
1,
1,
0,
1,
2,
0,
1,
0,
0,
1,
0,
0,
0,
0,
0,
1,
0,
0,
0,
1,
0,
0,
0,
0,
0,
1,
2,
0,
0,
0,
0,
2,
0,
0,
0,
0,
0,
0,
0,
0,
1,
1,
0,
0,
1,
0,
0,
0,
0,
0,
0,
0,
0,
0,
0,
0,
0,
0,
0,
0,
1,
2,
0,
0,
0,
0,
0,
0,
0,
0,
0,
0,
0,
0,
0,
1,
0,
0,
0,
0,
0,
0,
0,
0,
0,
1,
0,
0,
0,
0,
0,
0,
1,
1,
0,
0,
0,
0,
0,
0,
0,
0,
0,
1,
0,
0,
0,
0,
0,
0,
0,
1,
0,
0,
0,
0,
0,
0,
0,
0,
0,
0,
0,
0,
0,
0,
0,
0,
0,
0,
0,
0,
0,
0,
0,
0,
0,
0,
0,
0,
0,
0,
0,
0,
0,
0,
0,
0,
0,
0,
0,
0,
0,
0,
0,
0,
0,
0,
0,
0,
0,
0,
0,
0,
0,
0,
0,
0,
0,
0,
0,
0,
0,
0,
0,
0,
0,
0,
0,
0,
0,
0,
0,
0,
0,
0,
0,
0,
0,
0,
0,
0,
0,
0,
0,
0,
0,
0,
0,
0,
0,
0,
0,
0,
0,
0,
0,
0,
0,
0,
0,
0,
0,
0,
0,
0,
0,
0,
0,
0,
0,
0,
0,
0,
0,
0,
0,
0,
0,
0,
0,
0,
0,
0,
0,
0,
0,
0,
0,
0,
0,
0,
0,
0,
0,
0,
0,
0,
0,
0,
0,
0,
0,
0,
0,
0,
0,
0,
0,
0,
0,
0,
0,
0,
0,
0,
0,
0,
0,
0,
0,
0,
0,
0,
0,
0,
0,
0,
0,
0,
0,
0,
0,
0,
0,
0,
0,
0,
0,
0,
0,
0,
0,
0,
0,
0,
0,
0,
0,
0,
0,
0,
0,
0,
0,
0,
0,
0,
0,
0,
0,
0,
0,
0,
0,
0,
1,
0,
0,
0,
0,
0,
0,
0,
0,
0,
0,
0,
0,
0,
0,
0,
0,
0,
0,
0,
0,
0,
0,
0,
0,
0,
0,
0,
0,
0,
0,
0,
0,
0,
0,
0,
0,
0,
0,
0,
0,
0,
0,
0,
0,
0,
0,
0,
0,
0,
0,
0,
0,
0,
0,
0,
0,
0,
0,
0,
0,
0,
0,
0,
0,
0,
0,
0,
0,
0,
0,
0,
0,
0,
0,
0,
0,
0,
0,
0,
0,
0,
0,
0,
0,
0,
0,
0,
0,
0,
0,
0,
0,
0,
0,
0,
0,
0,
0,
0,
0,
0,
0,
0,
0,
0,
0,
0,
0,
0,
0,
0,
0,
0,
0,
0,
0,
0,
0,
0,
0,
0,
0,
0,
0,
0,
0,
0,
0,
0,
0,
0,
0,
0,
0,
0,
0,
0,
0,
0,
0,
0,
0,
0,
0,
0,
0,
0,
0,
0,
0,
0,
0,
0,
0,
0,
0,
0,
0,
0,
0,
0,
0,
0,
0,
0,
0,
0,
1,
0,
0,
0,
0,
0,
0,
0,
0,
0,
0,
0,
0,
0,
0,
0,
#ENDOFDATA   :