File: NeXLSpectrum/Zepellin/Standards/Cl std.msa
#FORMAT      : EMSA/MAS Spectral Data File
#VERSION     : 1.0
#TITLE       : NaCl std
#DATE        : 11-OCT-2018
#TIME        : 00:38
#OWNER       : Unknown
#NPOINTS     : 4096
#NCOLUMNS    : 1
#XUNITS      : eV
#YUNITS      : counts
#DATATYPE    : Y
#XPERCHAN    : 9.99856
#OFFSET      : 1.63032
#BEAMKV      : 20
#SIGNALTYPE  : EDS
#ELEVANGLE   : 35
#AZIMANGLE   : 0
#LIVETIME    : 1156.51
#REALTIME    : 1587.85
#PROBECUR    : 0.97454
#TDEADLYR    : 0
#TACTLYR     : 0.045
#TALWIND     : 0.003
#CHOFFSET    : 0.0
#XLABEL      : Energy (eV)
#YLABEL      : Counts
#EDSDET      : SDUTW
##SPECIMEN   : NaCl std
##D2STDCMP   : NaCl,(Na:39.3372),(Cl:60.6628),5.0
##DET_HASH   : 97086dfe-e5c2-9c77-3984-1d0b14bbbf41
##CALIB_HASH : 1a36e884-c26d-3547-51b1-d0bb2efdf95a
##WORKING    : 17.0 mm
##SAMPLE     : <BulkSample id="1">\n<mOrientation id="2">\n<double>0.0</double>\n<double>0.0</double>\n<double>-1.0</double>\n</mOrientation>\n</BulkSample>
#SPECTRUM    :
196570,
39675,
2540,
402,
227,
507,
1423,
3883,
20788,
40917,
21563,
7040,
5902,
6432,
7324,
9779,
19100,
34498,
28968,
15326,
13355,
15658,
19493,
21413,
21301,
23547,
27161,
32940,
52270,
81654,
80535,
68149,
127660,
564962,
1667032,
1977909,
909755,
186646,
37838,
23006,
21603,
21654,
21832,
22575,
23022,
23529,
23797,
24212,
25336,
26877,
26933,
26517,
25968,
25640,
25545,
27619,
30281,
32524,
32404,
30952,
29067,
27392,
26370,
26047,
25991,
26252,
26405,
27039,
28537,
30228,
30176,
28768,
27773,
27547,
28210,
29055,
30843,
31467,
30914,
29258,
27971,
29218,
36141,
57984,
145135,
491772,
1366424,
2369648,
2384978,
1393043,
494370,
149509,
125202,
199562,
240191,
183401,
92820,
36715,
17666,
13767,
13149,
12941,
12883,
13032,
13006,
13020,
13184,
12965,
13122,
13051,
13183,
13029,
12894,
13051,
13103,
12997,
13322,
13273,
13234,
13998,
15844,
18857,
21233,
20492,
17633,
14658,
13061,
12922,
12902,
13012,
12798,
12344,
12155,
11984,
11554,
11808,
11672,
11634,
11612,
11540,
11662,
11456,
11338,
11353,
11278,
10999,
10984,
11103,
10980,
10774,
10823,
10777,
10583,
10436,
10358,
10413,
10044,
10402,
10088,
10099,
10116,
9994,
9742,
9878,
9852,
9732,
9752,
9652,
9656,
9652,
9572,
9790,
10684,
11936,
13736,
14890,
13951,
12115,
10812,
10057,
10083,
9962,
9808,
9576,
8936,
8542,
8397,
8464,
8348,
8349,
8037,
8148,
7977,
8137,
7898,
8142,
8164,
8018,
7942,
7905,
7484,
7482,
7507,
7454,
7310,
7314,
7216,
7251,
7296,
7082,
7196,
7278,
7360,
7708,
7575,
7274,
7114,
6871,
6610,
6629,
6527,
6510,
6433,
6413,
6391,
6421,
6389,
6267,
6051,
6240,
6212,
5896,
6053,
5996,
6048,
6000,
6094,
5846,
5835,
5787,
5699,
5639,
5655,
5570,
5608,
5524,
5425,
5390,
5589,
5537,
5377,
5253,
5237,
5165,
5115,
5016,
5189,
5086,
4946,
5025,
4954,
4811,
4814,
4943,
4807,
4925,
4841,
4721,
4777,
4690,
4628,
4550,
4622,
4626,
4488,
4468,
4419,
4361,
4432,
4297,
4234,
4240,
4239,
4237,
4271,
4213,
4143,
4070,
4031,
4108,
3924,
3963,
3874,
3830,
3929,
3879,
3895,
3820,
3813,
3748,
3741,
3788,
3764,
3647,
3635,
3552,
3568,
3656,
3416,
3448,
3554,
3499,
3414,
3280,
3322,
3352,
3334,
3252,
3320,
3297,
3145,
3251,
3126,
3164,
3115,
2958,
3079,
3023,
3000,
2970,
3037,
2923,
2948,
2838,
2922,
2832,
2831,
2896,
2730,
2811,
2756,
2749,
2810,
2683,
2704,
2581,
2740,
2642,
2607,
2593,
2656,
2541,
2533,
2509,
2635,
2511,
2426,
2365,
2451,
2382,
2412,
2439,
2294,
2260,
2261,
2216,
2276,
2171,
2245,
2111,
2196,
2165,
2120,
2194,
2029,
2118,
2127,
2043,
1978,
2052,
2043,
1965,
1975,
1966,
1951,
1868,
1966,
1881,
1923,
1812,
1833,
1854,
1882,
1779,
1784,
1732,
1732,
1739,
1749,
1624,
1749,
1642,
1672,
1663,
1583,
1605,
1581,
1648,
1528,
1537,
1552,
1430,
1491,
1516,
1495,
1431,
1517,
1470,
1433,
1438,
1465,
1427,
1373,
1403,
1349,
1343,
1340,
1298,
1271,
1287,
1299,
1227,
1257,
1213,
1237,
1213,
1160,
1150,
1124,
1174,
1173,
1205,
1153,
1183,
1183,
1181,
1189,
1126,
1148,
1092,
1058,
1038,
962,
929,
1025,
947,
922,
901,
966,
903,
927,
882,
979,
879,
893,
900,
837,
865,
843,
845,
822,
811,
768,
784,
811,
729,
768,
763,
735,
741,
745,
737,
704,
719,
710,
680,
653,
654,
677,
628,
689,
651,
648,
655,
615,
600,
622,
579,
609,
613,
606,
603,
538,
546,
527,
554,
535,
529,
477,
517,
468,
469,
446,
470,
481,
433,
477,
403,
402,
481,
419,
427,
423,
425,
424,
404,
398,
361,
389,
361,
382,
367,
354,
327,
335,
341,
372,
293,
340,
285,
316,
306,
309,
308,
308,
287,
294,
301,
246,
250,
263,
277,
281,
265,
220,
249,
214,
252,
232,
257,
225,
228,
204,
229,
201,
209,
190,
207,
211,
185,
201,
183,
172,
160,
158,
152,
159,
158,
161,
145,
132,
140,
144,
143,
118,
144,
143,
122,
109,
134,
110,
112,
114,
120,
100,
108,
117,
109,
100,
93,
91,
94,
102,
71,
79,
81,
77,
64,
87,
84,
72,
82,
59,
77,
77,
73,
56,
60,
66,
43,
52,
33,
39,
34,
31,
35,
30,
41,
31,
31,
31,
37,
26,
27,
17,
18,
13,
20,
13,
15,
14,
11,
15,
10,
7,
12,
7,
4,
11,
3,
6,
5,
3,
4,
2,
3,
1,
0,
3,
1,
0,
0,
0,
0,
1,
1,
1,
0,
2,
1,
0,
1,
1,
1,
0,
0,
2,
3,
0,
0,
2,
1,
0,
1,
2,
1,
1,
0,
0,
1,
1,
0,
0,
0,
0,
0,
0,
0,
1,
0,
0,
0,
0,
1,
0,
0,
0,
0,
0,
0,
4,
0,
0,
0,
2,
0,
0,
0,
0,
0,
0,
0,
0,
0,
0,
0,
0,
1,
0,
0,
0,
0,
0,
0,
0,
1,
0,
1,
0,
1,
0,
0,
0,
0,
0,
0,
0,
0,
0,
0,
0,
0,
0,
0,
0,
0,
1,
0,
0,
0,
1,
0,
0,
0,
0,
0,
0,
0,
1,
0,
0,
0,
0,
0,
0,
0,
0,
0,
0,
1,
0,
0,
0,
0,
0,
0,
0,
0,
0,
0,
0,
0,
1,
0,
0,
0,
0,
0,
0,
0,
1,
0,
0,
0,
0,
0,
0,
0,
0,
0,
0,
0,
0,
0,
0,
0,
0,
0,
0,
0,
0,
0,
0,
0,
0,
0,
0,
0,
0,
0,
0,
0,
0,
0,
0,
0,
0,
0,
0,
1,
0,
0,
0,
0,
0,
0,
0,
0,
1,
0,
0,
0,
0,
0,
0,
0,
0,
0,
0,
0,
0,
0,
0,
0,
0,
0,
0,
0,
0,
0,
0,
0,
0,
0,
0,
0,
0,
0,
0,
0,
0,
1,
0,
0,
0,
0,
0,
0,
0,
0,
0,
0,
0,
0,
0,
0,
0,
0,
0,
0,
0,
0,
0,
0,
0,
0,
1,
0,
0,
0,
0,
0,
0,
0,
0,
0,
0,
0,
0,
0,
0,
0,
0,
0,
0,
0,
0,
0,
0,
0,
0,
0,
0,
0,
0,
0,
0,
0,
0,
0,
0,
0,
0,
0,
0,
0,
0,
0,
0,
0,
0,
0,
0,
0,
0,
0,
0,
0,
0,
0,
0,
0,
0,
0,
0,
0,
0,
0,
0,
0,
0,
0,
0,
0,
0,
0,
0,
0,
0,
0,
0,
0,
0,
0,
0,
0,
0,
0,
0,
0,
0,
0,
0,
0,
0,
0,
0,
0,
0,
0,
0,
0,
0,
0,
0,
0,
0,
0,
0,
0,
0,
0,
0,
0,
0,
0,
0,
0,
0,
0,
0,
0,
0,
0,
0,
0,
0,
0,
0,
0,
0,
0,
0,
0,
0,
0,
0,
0,
0,
0,
0,
0,
0,
0,
0,
0,
0,
0,
0,
0,
0,
0,
0,
0,
0,
0,
0,
0,
0,
0,
0,
0,
0,
0,
0,
0,
0,
0,
0,
0,
0,
0,
0,
0,
0,
0,
0,
0,
0,
0,
0,
0,
0,
0,
0,
0,
0,
0,
0,
0,
0,
0,
0,
0,
0,
0,
0,
0,
0,
0,
0,
0,
0,
0,
0,
0,
0,
0,
0,
0,
0,
0,
0,
0,
0,
0,
0,
0,
0,
0,
0,
0,
0,
0,
0,
0,
0,
0,
0,
0,
0,
0,
0,
0,
0,
0,
0,
0,
0,
0,
0,
0,
0,
0,
0,
0,
0,
0,
0,
0,
0,
0,
0,
0,
0,
0,
0,
0,
0,
0,
0,
0,
0,
0,
0,
0,
0,
0,
0,
0,
0,
0,
0,
0,
0,
0,
0,
0,
0,
0,
0,
0,
0,
0,
0,
0,
0,
0,
0,
0,
0,
0,
0,
0,
0,
0,
0,
0,
0,
0,
0,
0,
0,
0,
0,
0,
0,
0,
0,
0,
0,
0,
0,
0,
0,
0,
0,
0,
0,
0,
0,
0,
0,
0,
0,
0,
0,
0,
0,
0,
0,
0,
0,
0,
0,
0,
0,
0,
0,
0,
0,
0,
0,
0,
0,
0,
0,
0,
0,
0,
0,
0,
0,
0,
0,
0,
0,
0,
0,
0,
0,
0,
0,
0,
0,
0,
0,
0,
0,
0,
0,
0,
0,
0,
0,
0,
0,
0,
0,
0,
0,
0,
0,
0,
0,
0,
0,
0,
0,
0,
0,
0,
0,
0,
0,
0,
0,
0,
0,
0,
0,
0,
0,
0,
0,
0,
0,
0,
0,
0,
0,
0,
0,
0,
0,
0,
0,
0,
0,
0,
0,
0,
0,
0,
0,
0,
0,
0,
0,
0,
0,
0,
0,
0,
0,
0,
0,
0,
0,
0,
0,
0,
0,
0,
0,
0,
0,
0,
0,
0,
0,
0,
0,
0,
0,
0,
0,
0,
0,
0,
0,
0,
0,
0,
0,
0,
#ENDOFDATA   :