File: NeXLSpectrum/Zepellin/Standards/Cr std.msa
#FORMAT      : EMSA/MAS Spectral Data File
#VERSION     : 1.0
#TITLE       : Cr std
#DATE        : 11-OCT-2018
#TIME        : 01:35
#OWNER       : Unknown
#NPOINTS     : 4096
#NCOLUMNS    : 1
#XUNITS      : eV
#YUNITS      : counts
#DATATYPE    : Y
#XPERCHAN    : 9.99856
#OFFSET      : 1.63032
#BEAMKV      : 20
#SIGNALTYPE  : EDS
#ELEVANGLE   : 35
#AZIMANGLE   : 0
#LIVETIME    : 1162.73
#REALTIME    : 1542.76
#PROBECUR    : 0.97561
#TDEADLYR    : 0
#TACTLYR     : 0.045
#TALWIND     : 0.003
#CHOFFSET    : 0.0
#XLABEL      : Energy (eV)
#YLABEL      : Counts
#EDSDET      : SDUTW
##SPECIMEN   : Cr std
##D2STDCMP   : Cr,(Cr:100.0),5.0
##DET_HASH   : 97086dfe-e5c2-9c77-3984-1d0b14bbbf41
##CALIB_HASH : 1a36e884-c26d-3547-51b1-d0bb2efdf95a
##WORKING    : 17.0 mm
##SAMPLE     : <BulkSample id="1">\n<mOrientation id="2">\n<double>0.0</double>\n<double>0.0</double>\n<double>-1.0</double>\n</mOrientation>\n</BulkSample>
#SPECTRUM    :
190991,
41315,
3350,
554,
166,
184,
668,
2850,
9947,
16633,
12308,
11755,
15584,
20364,
36273,
110335,
267677,
304750,
319667,
363309,
166311,
35180,
13965,
10790,
9552,
9237,
9746,
10501,
11733,
12520,
13100,
14278,
15340,
16230,
17588,
18571,
19581,
20604,
21239,
22193,
23051,
24080,
24945,
25929,
26321,
27464,
28009,
28885,
30499,
33048,
33713,
31906,
30262,
29900,
30310,
31421,
34391,
41892,
47048,
43047,
37835,
34475,
33477,
32846,
32488,
32814,
33421,
33693,
33717,
33874,
34043,
34368,
34480,
34450,
34905,
34754,
34876,
34672,
34808,
34541,
34296,
34201,
34241,
33577,
34056,
33579,
33147,
33384,
33657,
33260,
32967,
32898,
32467,
32720,
32100,
32313,
31898,
31996,
31720,
31339,
31405,
31269,
30715,
30609,
30045,
30302,
30014,
29951,
29296,
29321,
28771,
28835,
29216,
28861,
28393,
28307,
28197,
28000,
27966,
28843,
30629,
33999,
36174,
35391,
31914,
28349,
26785,
26144,
25545,
25274,
25269,
24940,
25017,
24851,
24684,
24411,
24177,
24184,
24332,
24692,
24436,
24256,
23540,
23190,
22883,
22827,
22618,
22346,
22392,
22225,
22055,
22189,
22068,
21590,
21857,
21550,
21719,
21279,
20977,
20819,
20324,
20183,
20252,
20555,
20629,
20885,
20665,
20231,
19961,
20165,
20477,
21054,
22229,
23815,
27830,
42604,
99252,
278226,
675191,
1248677,
1709447,
1707517,
1253206,
680029,
279653,
96214,
36560,
21786,
19113,
18290,
18460,
19215,
20815,
25649,
38882,
70068,
125656,
192685,
232709,
216807,
155743,
88792,
43493,
21145,
13418,
10691,
10444,
10210,
10478,
10422,
10832,
11687,
12557,
13623,
13268,
12513,
11597,
10881,
10427,
10180,
9827,
9971,
9728,
9749,
9762,
9607,
9886,
9577,
9649,
9571,
9599,
9684,
9618,
9567,
9662,
9741,
9529,
9541,
9346,
9253,
9091,
8969,
8948,
9090,
8827,
8840,
8870,
9065,
8916,
9120,
8932,
8753,
8813,
8693,
8399,
8450,
8439,
8516,
8444,
8258,
8292,
8290,
8153,
8152,
8338,
8066,
8029,
8037,
7938,
7826,
7827,
7824,
7840,
7744,
7769,
7690,
7499,
7685,
7638,
7485,
7445,
7346,
7441,
7283,
7138,
7224,
7318,
7263,
7059,
7034,
7165,
6979,
7022,
7015,
6901,
6787,
6678,
6897,
6724,
6679,
6588,
6710,
6701,
6640,
6469,
6454,
6358,
6368,
6468,
6283,
6281,
6136,
6024,
6104,
6077,
6028,
6043,
5980,
6117,
5990,
5939,
5941,
5850,
5763,
5860,
5638,
5824,
5598,
5493,
5727,
5579,
5495,
5271,
5548,
5225,
5429,
5314,
5357,
5201,
5307,
5103,
5186,
5107,
5126,
5101,
4988,
5033,
4890,
4997,
4980,
5009,
4959,
4915,
4990,
4845,
4926,
4918,
5342,
5678,
6100,
6542,
6921,
6604,
6231,
5375,
5046,
4597,
4506,
4274,
4378,
4245,
4277,
4354,
4103,
4136,
4199,
4314,
4541,
4582,
4547,
4388,
4266,
4175,
3953,
3975,
3776,
3652,
3585,
3752,
3581,
3603,
3681,
3607,
3579,
3522,
3501,
3533,
3509,
3403,
3265,
3285,
3299,
3205,
3241,
3127,
3126,
3108,
3168,
3148,
3099,
3014,
3091,
2971,
2907,
2936,
3041,
2898,
2887,
2992,
3039,
2835,
2854,
2846,
2748,
2778,
2656,
2695,
2651,
2662,
2616,
2709,
2581,
2537,
2548,
2483,
2521,
2479,
2415,
2418,
2435,
2497,
2329,
2391,
2209,
2214,
2206,
2212,
2213,
2185,
2182,
2190,
2125,
2114,
2166,
2011,
1999,
2056,
1970,
1944,
1883,
1862,
1957,
1876,
1920,
1870,
1852,
1863,
1787,
1779,
1789,
1736,
1664,
1673,
1657,
1657,
1669,
1647,
1701,
1571,
1589,
1538,
1588,
1611,
1537,
1510,
1486,
1503,
1434,
1459,
1460,
1501,
1420,
1399,
1379,
1344,
1355,
1376,
1341,
1299,
1282,
1242,
1254,
1319,
1204,
1210,
1127,
1165,
1195,
1188,
1135,
1126,
1102,
1101,
1068,
1040,
1055,
1009,
1019,
984,
1006,
998,
953,
1047,
934,
944,
952,
948,
962,
873,
924,
890,
925,
910,
857,
809,
816,
803,
816,
793,
795,
731,
770,
726,
705,
696,
753,
674,
694,
724,
670,
660,
699,
663,
631,
621,
635,
609,
592,
575,
572,
555,
534,
574,
589,
553,
500,
537,
485,
519,
476,
470,
476,
446,
456,
457,
414,
421,
412,
411,
385,
433,
421,
380,
393,
363,
365,
424,
383,
359,
351,
354,
320,
322,
317,
333,
297,
309,
322,
307,
268,
273,
257,
265,
257,
235,
262,
250,
232,
245,
218,
229,
212,
235,
196,
186,
181,
204,
181,
215,
169,
172,
168,
165,
170,
136,
162,
163,
166,
146,
114,
132,
104,
118,
112,
96,
112,
100,
102,
110,
97,
101,
88,
84,
108,
91,
85,
67,
56,
56,
68,
67,
42,
52,
52,
31,
43,
41,
32,
32,
36,
33,
25,
25,
24,
13,
15,
9,
9,
17,
7,
8,
7,
2,
7,
5,
4,
8,
4,
6,
2,
5,
6,
4,
3,
1,
8,
2,
2,
3,
2,
4,
3,
6,
4,
3,
6,
1,
7,
3,
2,
6,
3,
5,
3,
4,
2,
7,
5,
0,
2,
3,
2,
5,
1,
6,
1,
7,
5,
1,
2,
2,
3,
4,
4,
2,
3,
2,
0,
2,
3,
1,
1,
0,
4,
1,
3,
3,
3,
4,
0,
4,
0,
1,
3,
2,
4,
1,
4,
2,
3,
1,
0,
0,
3,
0,
1,
0,
0,
3,
3,
5,
0,
3,
1,
1,
0,
2,
1,
0,
0,
1,
2,
1,
0,
0,
0,
0,
0,
0,
0,
1,
3,
1,
1,
0,
1,
0,
0,
1,
0,
0,
1,
1,
0,
1,
1,
1,
0,
0,
1,
0,
0,
0,
1,
0,
1,
0,
0,
1,
0,
3,
0,
1,
1,
1,
0,
1,
0,
1,
1,
0,
2,
0,
0,
1,
0,
0,
0,
0,
1,
2,
0,
0,
0,
0,
0,
0,
0,
0,
1,
0,
0,
0,
0,
0,
0,
0,
0,
0,
0,
0,
0,
1,
0,
1,
0,
0,
0,
0,
0,
0,
0,
0,
0,
0,
0,
0,
0,
0,
0,
0,
0,
0,
0,
1,
1,
0,
0,
0,
0,
1,
0,
1,
0,
0,
1,
0,
0,
0,
0,
0,
1,
0,
0,
0,
0,
0,
0,
0,
0,
0,
1,
0,
0,
0,
0,
0,
0,
0,
0,
0,
0,
0,
0,
0,
0,
0,
0,
0,
0,
0,
0,
0,
0,
0,
0,
0,
0,
0,
0,
0,
0,
0,
0,
0,
0,
0,
0,
0,
0,
0,
0,
0,
0,
0,
0,
0,
0,
0,
0,
0,
0,
0,
0,
0,
0,
0,
0,
0,
0,
0,
0,
0,
0,
0,
0,
0,
0,
0,
0,
0,
0,
0,
0,
0,
0,
0,
0,
0,
0,
0,
0,
0,
0,
1,
0,
0,
0,
1,
0,
1,
0,
0,
0,
0,
0,
0,
0,
0,
0,
0,
0,
0,
0,
0,
0,
0,
0,
0,
0,
0,
0,
0,
0,
0,
0,
0,
0,
0,
0,
0,
0,
0,
0,
0,
0,
0,
0,
0,
0,
0,
0,
0,
0,
0,
0,
0,
0,
0,
0,
0,
0,
0,
0,
0,
0,
0,
0,
0,
0,
0,
0,
0,
0,
0,
0,
0,
0,
0,
0,
0,
0,
0,
0,
0,
0,
0,
0,
0,
0,
0,
0,
0,
0,
0,
0,
0,
0,
0,
0,
0,
0,
0,
0,
0,
0,
0,
0,
0,
0,
0,
0,
0,
0,
0,
0,
0,
0,
0,
0,
0,
0,
0,
0,
0,
0,
0,
0,
0,
0,
0,
0,
0,
0,
0,
0,
0,
0,
0,
0,
0,
0,
0,
0,
0,
0,
0,
0,
0,
0,
0,
0,
0,
0,
0,
0,
0,
0,
0,
0,
0,
0,
0,
0,
0,
0,
0,
0,
0,
0,
0,
0,
0,
0,
0,
0,
0,
0,
0,
0,
0,
0,
0,
0,
0,
0,
0,
0,
0,
0,
0,
0,
0,
0,
0,
0,
0,
0,
0,
0,
0,
0,
0,
0,
0,
0,
0,
0,
0,
0,
0,
0,
0,
0,
0,
0,
0,
0,
0,
0,
0,
0,
0,
0,
0,
0,
0,
1,
0,
0,
0,
0,
0,
0,
0,
0,
0,
0,
0,
0,
0,
0,
0,
0,
0,
0,
0,
0,
0,
0,
0,
0,
0,
0,
0,
0,
0,
0,
0,
0,
0,
0,
0,
0,
1,
0,
0,
0,
0,
0,
0,
0,
0,
0,
0,
0,
0,
0,
0,
0,
0,
0,
0,
0,
0,
0,
0,
0,
0,
0,
0,
0,
0,
0,
0,
0,
0,
0,
0,
0,
0,
0,
0,
0,
0,
0,
0,
0,
0,
0,
0,
0,
0,
0,
0,
0,
0,
0,
0,
0,
0,
0,
0,
0,
0,
0,
0,
0,
0,
0,
0,
0,
0,
0,
0,
0,
0,
0,
0,
0,
0,
0,
0,
0,
0,
0,
0,
0,
0,
0,
0,
0,
0,
0,
0,
0,
0,
0,
0,
0,
0,
0,
0,
0,
0,
0,
0,
0,
0,
0,
0,
0,
0,
0,
0,
0,
0,
0,
0,
0,
0,
0,
0,
0,
0,
0,
#ENDOFDATA   :