File: NeXLSpectrum/Zepellin/Standards/Cu std.msa
#FORMAT      : EMSA/MAS Spectral Data File
#VERSION     : 1.0
#TITLE       : Cu std
#DATE        : 11-OCT-2018
#TIME        : 02:17
#OWNER       : Unknown
#NPOINTS     : 4096
#NCOLUMNS    : 1
#XUNITS      : eV
#YUNITS      : counts
#DATATYPE    : Y
#XPERCHAN    : 9.99856
#OFFSET      : 1.63032
#BEAMKV      : 20
#SIGNALTYPE  : EDS
#ELEVANGLE   : 35
#AZIMANGLE   : 0
#LIVETIME    : 1159.85
#REALTIME    : 1599.29
#PROBECUR    : 0.97242
#TDEADLYR    : 0
#TACTLYR     : 0.045
#TALWIND     : 0.003
#CHOFFSET    : 0.0
#XLABEL      : Energy (eV)
#YLABEL      : Counts
#EDSDET      : SDUTW
##SPECIMEN   : Cu std
##D2STDCMP   : Cu,(Cu:100.0),8.9
##DET_HASH   : 97086dfe-e5c2-9c77-3984-1d0b14bbbf41
##CALIB_HASH : 1a36e884-c26d-3547-51b1-d0bb2efdf95a
##WORKING    : 17.0 mm
##SAMPLE     : <BulkSample id="1">\n<mOrientation id="2">\n<double>0.0</double>\n<double>0.0</double>\n<double>-1.0</double>\n</mOrientation>\n</BulkSample>
#SPECTRUM    :
188926,
40757,
3286,
591,
192,
234,
819,
3857,
17980,
34434,
20324,
11257,
14282,
16944,
16887,
20487,
32790,
51199,
45317,
31720,
31629,
36677,
42956,
50018,
61570,
97077,
213531,
329571,
302571,
563803,
1842191,
2838481,
1678968,
421121,
77465,
28899,
18558,
16011,
15685,
16341,
17214,
17650,
18189,
18976,
19565,
20283,
20872,
21850,
23510,
25801,
26717,
25216,
24129,
23854,
24173,
25021,
26437,
28931,
30720,
31017,
31726,
34145,
35698,
33034,
29911,
28174,
28368,
29137,
29241,
29530,
29895,
30262,
30549,
30989,
30948,
32174,
33143,
34484,
33997,
32780,
32482,
32347,
32505,
32771,
32496,
32248,
32872,
33450,
33708,
33166,
32759,
32122,
32299,
32056,
32346,
32037,
32300,
32071,
32086,
32173,
32120,
31892,
31784,
31540,
31260,
31336,
31166,
31132,
31025,
31050,
30937,
30709,
30649,
30272,
30016,
29820,
29821,
29529,
29313,
29368,
28927,
29016,
29067,
28498,
28535,
28231,
27922,
27770,
27552,
27518,
27483,
26906,
26762,
26954,
26450,
26413,
26132,
25788,
25778,
25802,
25550,
25329,
25043,
24895,
24860,
24702,
24723,
24200,
24117,
24045,
24233,
23810,
23688,
23138,
23131,
22983,
22743,
22897,
22474,
22690,
22441,
22113,
21935,
21967,
21527,
21584,
21269,
21027,
21210,
20768,
20825,
20673,
20401,
20092,
20327,
20000,
20065,
20195,
20107,
20030,
20281,
20229,
20030,
19346,
19228,
18828,
18739,
18452,
18368,
18540,
18037,
17899,
17703,
17674,
17856,
17645,
17874,
17388,
17389,
17291,
17040,
16886,
17057,
16764,
16614,
16785,
16509,
16490,
17000,
17491,
18139,
18063,
18429,
18348,
18015,
17246,
16426,
15491,
15375,
15209,
14975,
14614,
14762,
14656,
14601,
14499,
14339,
14410,
14323,
14089,
14167,
14107,
13987,
14106,
13920,
14059,
13892,
13722,
13730,
13408,
13344,
13126,
13071,
13073,
12920,
12915,
12740,
13040,
13019,
12838,
12546,
12933,
12697,
12677,
12713,
12836,
12796,
13031,
13284,
13808,
14492,
17054,
26730,
54494,
121855,
248904,
427806,
599570,
676638,
618774,
453798,
270935,
134556,
59307,
26482,
15371,
12160,
11117,
10680,
10431,
10317,
10328,
10325,
10278,
10301,
10382,
10415,
10604,
10678,
11301,
12237,
14566,
19886,
31123,
49501,
72084,
91058,
96816,
86748,
65724,
43049,
26226,
15597,
10543,
8453,
7432,
7139,
7084,
6957,
6973,
6894,
7023,
6930,
6824,
6679,
6745,
6855,
6777,
6971,
6760,
6684,
6740,
6667,
6667,
6626,
6782,
6843,
6805,
7020,
6769,
6587,
6501,
6500,
6245,
6214,
6166,
6145,
6185,
6088,
6004,
5978,
5903,
5968,
5917,
5961,
5872,
5755,
5857,
5743,
5889,
5933,
5948,
5774,
5744,
5634,
5440,
5417,
5464,
5436,
5431,
5229,
5277,
5167,
5305,
5306,
5055,
5122,
5090,
5053,
5105,
5097,
5029,
4930,
4847,
4909,
4851,
4792,
4629,
4712,
4685,
4830,
4648,
4603,
4557,
4552,
4533,
4547,
4409,
4416,
4538,
4294,
4253,
4398,
4323,
4211,
4078,
4122,
4126,
4105,
3997,
3996,
3899,
3990,
3954,
3867,
3793,
3896,
3778,
3824,
3735,
3777,
3738,
3709,
3580,
3591,
3544,
3478,
3537,
3590,
3620,
3448,
3621,
3587,
3477,
3357,
3309,
3334,
3206,
3257,
3195,
3230,
3186,
3122,
3082,
3168,
3066,
2949,
3029,
2950,
2909,
2947,
2909,
2827,
2756,
2754,
2750,
2754,
2801,
2704,
2698,
2664,
2659,
2548,
2520,
2530,
2527,
2548,
2457,
2467,
2424,
2415,
2345,
2270,
2349,
2329,
2259,
2275,
2261,
2189,
2179,
2255,
2103,
2093,
2068,
2075,
2008,
2013,
2022,
1960,
2025,
2007,
1937,
1890,
1876,
1879,
1817,
1841,
1781,
1866,
1845,
1825,
1763,
1710,
1753,
1676,
1634,
1648,
1609,
1655,
1623,
1558,
1541,
1550,
1486,
1483,
1522,
1522,
1430,
1422,
1436,
1430,
1374,
1390,
1315,
1378,
1275,
1321,
1338,
1233,
1295,
1259,
1252,
1247,
1220,
1270,
1194,
1242,
1177,
1141,
1129,
1139,
1118,
1184,
1230,
1260,
1303,
1265,
1178,
1275,
1154,
1094,
1010,
983,
948,
915,
922,
889,
931,
883,
891,
832,
825,
841,
793,
829,
767,
781,
764,
775,
733,
753,
725,
744,
733,
702,
769,
753,
717,
718,
682,
660,
610,
603,
584,
546,
657,
523,
513,
531,
519,
520,
531,
491,
523,
487,
431,
470,
473,
436,
477,
434,
435,
430,
440,
433,
381,
364,
395,
389,
352,
340,
317,
339,
344,
348,
331,
296,
338,
306,
280,
269,
279,
268,
246,
253,
261,
274,
277,
268,
232,
236,
225,
215,
191,
193,
176,
178,
185,
180,
161,
182,
179,
156,
141,
153,
146,
149,
120,
131,
117,
113,
117,
112,
114,
109,
108,
89,
74,
73,
89,
87,
77,
68,
65,
54,
56,
49,
55,
32,
31,
38,
29,
28,
21,
25,
22,
16,
24,
15,
5,
14,
9,
3,
5,
6,
11,
6,
1,
3,
5,
4,
5,
7,
3,
6,
3,
3,
6,
10,
4,
4,
6,
6,
2,
3,
4,
4,
2,
4,
4,
4,
5,
1,
6,
6,
3,
2,
4,
3,
4,
5,
4,
4,
3,
7,
0,
6,
4,
4,
3,
5,
3,
4,
0,
3,
2,
1,
2,
2,
3,
5,
2,
3,
3,
3,
3,
0,
4,
5,
3,
4,
2,
2,
2,
3,
6,
0,
2,
3,
2,
1,
1,
2,
2,
0,
2,
0,
1,
4,
0,
2,
4,
2,
2,
4,
1,
4,
0,
3,
3,
1,
1,
0,
0,
2,
1,
1,
2,
1,
2,
3,
2,
0,
4,
0,
0,
2,
2,
2,
2,
5,
2,
0,
1,
4,
1,
3,
1,
0,
1,
2,
4,
1,
1,
0,
2,
1,
4,
1,
1,
1,
0,
0,
1,
2,
0,
0,
1,
2,
0,
3,
1,
2,
0,
0,
2,
2,
1,
2,
0,
1,
1,
0,
2,
1,
0,
0,
1,
0,
0,
1,
0,
0,
0,
0,
0,
2,
0,
4,
1,
1,
1,
0,
0,
0,
0,
1,
2,
0,
0,
0,
0,
0,
0,
0,
0,
0,
0,
0,
1,
0,
0,
0,
1,
0,
0,
0,
0,
0,
0,
0,
1,
0,
1,
1,
0,
1,
0,
0,
0,
0,
0,
0,
0,
0,
0,
0,
0,
0,
0,
0,
0,
0,
0,
1,
0,
0,
0,
0,
0,
0,
0,
0,
0,
0,
0,
0,
0,
0,
0,
0,
0,
0,
0,
0,
0,
0,
0,
1,
0,
0,
0,
0,
0,
0,
0,
0,
0,
0,
0,
0,
0,
0,
0,
0,
0,
0,
0,
0,
1,
0,
0,
0,
0,
0,
0,
0,
0,
0,
0,
0,
0,
1,
0,
0,
0,
0,
0,
0,
0,
0,
0,
0,
0,
1,
0,
0,
0,
0,
0,
0,
0,
0,
0,
0,
0,
0,
0,
0,
0,
0,
0,
0,
0,
0,
0,
0,
0,
0,
0,
0,
0,
0,
0,
0,
0,
0,
0,
0,
0,
0,
0,
0,
0,
0,
0,
0,
0,
0,
0,
0,
0,
0,
0,
0,
0,
0,
0,
0,
0,
0,
0,
0,
0,
0,
0,
0,
0,
0,
0,
0,
0,
0,
0,
0,
0,
0,
0,
0,
0,
0,
0,
0,
0,
0,
0,
0,
0,
0,
0,
0,
0,
0,
0,
0,
0,
0,
0,
0,
0,
0,
0,
0,
0,
0,
0,
0,
0,
0,
0,
0,
0,
0,
0,
0,
0,
0,
0,
0,
0,
0,
0,
0,
0,
0,
0,
0,
0,
0,
0,
0,
0,
0,
0,
0,
0,
0,
0,
0,
0,
0,
0,
0,
0,
0,
0,
0,
0,
0,
0,
0,
0,
0,
0,
0,
0,
0,
0,
0,
0,
0,
0,
0,
0,
0,
0,
0,
0,
0,
0,
0,
0,
0,
0,
0,
0,
0,
0,
0,
0,
0,
0,
0,
0,
0,
0,
0,
0,
0,
0,
0,
0,
0,
0,
0,
0,
0,
0,
0,
0,
0,
0,
0,
0,
0,
0,
0,
0,
0,
0,
0,
0,
0,
0,
0,
0,
0,
0,
0,
0,
0,
0,
0,
0,
0,
0,
0,
0,
0,
0,
0,
0,
0,
0,
0,
0,
0,
0,
0,
0,
0,
0,
0,
0,
0,
0,
0,
0,
0,
0,
0,
0,
0,
0,
0,
0,
0,
0,
0,
0,
0,
0,
0,
0,
0,
0,
0,
0,
0,
0,
0,
0,
0,
0,
0,
0,
0,
0,
0,
0,
0,
0,
0,
0,
0,
0,
0,
0,
0,
0,
0,
0,
0,
0,
0,
0,
0,
0,
0,
0,
0,
0,
0,
0,
0,
0,
0,
0,
0,
0,
0,
0,
0,
0,
0,
0,
0,
0,
0,
0,
0,
0,
0,
0,
0,
0,
0,
0,
0,
0,
0,
0,
0,
0,
0,
0,
0,
0,
0,
0,
0,
0,
0,
0,
0,
0,
0,
0,
0,
0,
0,
0,
0,
0,
0,
0,
0,
0,
0,
0,
0,
0,
0,
0,
0,
0,
0,
0,
0,
0,
0,
0,
0,
0,
0,
0,
0,
0,
0,
0,
0,
0,
0,
0,
0,
0,
0,
0,
0,
0,
0,
0,
0,
0,
0,
0,
#ENDOFDATA   :