File: NeXLSpectrum/Zepellin/Standards/Nd std.msa
#FORMAT      : EMSA/MAS Spectral Data File
#VERSION     : 1.0
#TITLE       : Trimmed[NdF2 std,571 eV,848 eV]
#DATE        : 15-OCT-2018
#TIME        : 00:35
#OWNER       : Unknown
#NPOINTS     : 4096
#NCOLUMNS    : 1
#XUNITS      : eV
#YUNITS      : counts
#DATATYPE    : Y
#XPERCHAN    : 9.99856
#OFFSET      : 1.63032
#BEAMKV      : 20
#SIGNALTYPE  : EDS
#ELEVANGLE   : 35
#AZIMANGLE   : 0
#LIVETIME    : 1147.43
#REALTIME    : 1484.4
#PROBECUR    : 0.98828
#TDEADLYR    : 0
#TACTLYR     : 0.045
#TALWIND     : 0.003
#CHOFFSET    : 0.0
#XLABEL      : Energy (eV)
#YLABEL      : Counts
#EDSDET      : SDUTW
##SPECIMEN   : Trimmed[NdF2 std,571 eV,848 eV]
##D2STDCMP   : NdF2,(F:20.8499),(Nd:79.1501),5.0
##DET_HASH   : 97086dfe-e5c2-9c77-3984-1d0b14bbbf41
##CALIB_HASH : 1a36e884-c26d-3547-51b1-d0bb2efdf95a
##WORKING    : 17.0 mm
##SAMPLE     : <BulkSample id="1">\n<mOrientation id="2">\n<double>0.0</double>\n<double>0.0</double>\n<double>-1.0</double>\n</mOrientation>\n</BulkSample>
#SPECTRUM    :
145332,
29832,
2384,
431,
152,
292,
1392,
6453,
23954,
41230,
25188,
16698,
18915,
21428,
24003,
29686,
40527,
55084,
51637,
48312.3,
46951.2,
45590.125,
44229,
42867.9,
41506.9,
40145.8,
38784.7,
37423.6,
36062.5,
37228,
44762,
75644,
130209,
149636,
99152,
47071,
28656,
27371,
34582,
43970,
42558,
36193,
37499,
38084,
34449,
31341,
29293,
28947,
34342,
44614,
46429,
36991,
30269,
28215,
27770,
28500,
29190,
30926,
32209,
31832,
31894,
31237,
30578,
30317,
30072,
30609,
30960,
31348,
31710,
31825,
32306,
32467,
32608,
32890,
32836,
33396,
33474,
33768,
34139,
33988,
34154,
34075,
34090,
34336,
34413,
34096,
34598,
35217,
35075,
34609,
34821,
34864,
34660,
34368,
34756,
34710,
34716,
34945,
34837,
34953,
34965,
34318,
34449,
33996,
34301,
34118,
34057,
33620,
33904,
33410,
33433,
33496,
33575,
33491,
34033,
35091,
35443,
35028,
33823,
32920,
32113,
32220,
31798,
31777,
31904,
31572,
31181,
30843,
30711,
30697,
30898,
31199,
31373,
30913,
30669,
30719,
30653,
30458,
29514,
29064,
28749,
28644,
28635,
28726,
28464,
28368,
28189,
28085,
28021,
27904,
28179,
29785,
33628,
40195,
45726,
46554,
41539,
34533,
30012,
27888,
26568,
26294,
25905,
25983,
25984,
25611,
25925,
26727,
28460,
34866,
55250,
113263,
233496,
399335,
521522,
507428,
367240,
202860,
94558,
46635,
31598,
27433,
26128,
24757,
24184,
25094,
30921,
49295,
91768,
162556,
232684,
260182,
228375,
168198,
115583,
81674,
59346,
44488,
35380,
34257,
43728,
64970,
89771,
103278,
95790,
72030,
47686,
30500,
22367,
18570,
18374,
19696,
21501,
23050,
23252,
22468,
22759,
26717,
34380,
43137,
46878,
43782,
35362,
26113,
20181,
18187,
18196,
20483,
23325,
25959,
26136,
23937,
20777,
18038,
16486,
16251,
16318,
15975,
15795,
14973,
13810,
13413,
13239,
13259,
12934,
12998,
13020,
12848,
12949,
13196,
13130,
13026,
12842,
12734,
12451,
12446,
12486,
12344,
12153,
12114,
11929,
11922,
12220,
11961,
11893,
11846,
11969,
11838,
11878,
11657,
11617,
11403,
11610,
11499,
11548,
11261,
11340,
11358,
11198,
11245,
11234,
10935,
10919,
10830,
11049,
10856,
10841,
10784,
10675,
10695,
10648,
10577,
10643,
10603,
10400,
10273,
10213,
10390,
10161,
10098,
10166,
10036,
9973,
9903,
9955,
9748,
9677,
9611,
9935,
9764,
9913,
9629,
9316,
9497,
9468,
9333,
9211,
9227,
9052,
9154,
9038,
9104,
9067,
8871,
9036,
8871,
8815,
8714,
8687,
8715,
8794,
8520,
8569,
8608,
8526,
8359,
8433,
8388,
8311,
8253,
8224,
7970,
8126,
8007,
7956,
7988,
8022,
7937,
8193,
8048,
8177,
8076,
8000,
7721,
7590,
7650,
7513,
7348,
7382,
7365,
7140,
7119,
7279,
7358,
7457,
7210,
7203,
7125,
7014,
6867,
6998,
6798,
6776,
6857,
6631,
6537,
6551,
6573,
6574,
6546,
6440,
6453,
6392,
6156,
6191,
6171,
6146,
6219,
5966,
5966,
5873,
5853,
5838,
5764,
5821,
5749,
5662,
5699,
5720,
5610,
5418,
5672,
5518,
5463,
5188,
5362,
5315,
5269,
5178,
5097,
5148,
5167,
5047,
5068,
4918,
4935,
4796,
4946,
4875,
4960,
4963,
4895,
4879,
4761,
4619,
4567,
4459,
4557,
4483,
4426,
4443,
4425,
4194,
4260,
4202,
4229,
4224,
4127,
4131,
3933,
3968,
3914,
3933,
3884,
3800,
3802,
3865,
3764,
3760,
3691,
3680,
3560,
3628,
3495,
3512,
3493,
3406,
3445,
3441,
3384,
3337,
3367,
3222,
3292,
3310,
3262,
3229,
3169,
3091,
3064,
2992,
3050,
3027,
2919,
2906,
2864,
2808,
2810,
2794,
2743,
2766,
2766,
2805,
2736,
2664,
2605,
2524,
2664,
2570,
2684,
2604,
2466,
2399,
2555,
2464,
2342,
2379,
2397,
2329,
2386,
2266,
2230,
2246,
2182,
2223,
2122,
2131,
2019,
2038,
2029,
2066,
1990,
2000,
1992,
1969,
1860,
1772,
1869,
1880,
1797,
1841,
1715,
1719,
1750,
1730,
1735,
1724,
1611,
1666,
1748,
1631,
1470,
1572,
1554,
1504,
1475,
1482,
1510,
1374,
1470,
1364,
1396,
1395,
1406,
1340,
1340,
1263,
1301,
1198,
1233,
1263,
1172,
1224,
1135,
1175,
1182,
1102,
1132,
1138,
1129,
1091,
1085,
998,
978,
1024,
1025,
1014,
937,
970,
1000,
945,
860,
868,
839,
856,
873,
902,
804,
854,
757,
773,
804,
766,
786,
693,
710,
743,
715,
698,
692,
668,
679,
642,
644,
604,
550,
600,
611,
557,
589,
571,
550,
509,
492,
473,
485,
435,
480,
462,
458,
393,
406,
409,
424,
410,
379,
388,
406,
359,
359,
342,
343,
328,
330,
311,
321,
296,
309,
257,
268,
263,
254,
214,
227,
240,
205,
232,
190,
219,
187,
177,
189,
178,
153,
158,
158,
162,
154,
132,
119,
119,
115,
111,
100,
96,
71,
75,
62,
64,
60,
60,
30,
46,
36,
27,
19,
20,
16,
17,
14,
17,
5,
6,
7,
10,
3,
9,
4,
8,
4,
5,
8,
5,
3,
6,
6,
4,
2,
1,
4,
7,
5,
6,
2,
8,
5,
7,
1,
6,
5,
8,
6,
3,
1,
5,
2,
6,
0,
3,
6,
7,
2,
4,
1,
2,
0,
0,
1,
2,
8,
7,
2,
1,
2,
4,
2,
2,
1,
5,
4,
5,
8,
2,
2,
3,
3,
6,
0,
5,
4,
2,
1,
3,
4,
1,
4,
4,
0,
4,
3,
3,
1,
4,
2,
2,
0,
1,
2,
2,
2,
2,
2,
1,
1,
2,
0,
1,
1,
0,
4,
0,
4,
2,
0,
2,
2,
2,
1,
1,
0,
0,
0,
1,
2,
0,
0,
3,
2,
0,
0,
3,
1,
3,
0,
3,
1,
1,
1,
2,
3,
0,
3,
2,
0,
1,
0,
1,
1,
0,
1,
0,
3,
0,
1,
1,
1,
0,
2,
1,
1,
0,
0,
0,
1,
1,
1,
0,
0,
0,
0,
0,
0,
4,
1,
1,
0,
0,
0,
0,
0,
1,
0,
0,
0,
0,
0,
1,
1,
1,
0,
0,
1,
0,
0,
0,
0,
2,
0,
0,
3,
0,
0,
0,
0,
0,
1,
0,
0,
0,
1,
0,
0,
0,
0,
0,
2,
0,
2,
0,
1,
0,
0,
0,
0,
0,
0,
1,
1,
0,
0,
0,
0,
1,
0,
0,
1,
1,
0,
0,
0,
0,
0,
0,
0,
0,
0,
0,
0,
2,
0,
1,
0,
0,
0,
0,
0,
0,
0,
0,
0,
1,
0,
0,
0,
0,
0,
0,
0,
0,
0,
0,
0,
0,
0,
0,
0,
0,
0,
0,
0,
1,
0,
0,
0,
0,
0,
0,
0,
0,
0,
0,
0,
0,
0,
0,
2,
0,
0,
0,
0,
0,
0,
0,
1,
0,
0,
0,
0,
0,
0,
0,
0,
0,
0,
0,
0,
0,
0,
0,
0,
0,
0,
1,
0,
0,
0,
0,
0,
0,
0,
0,
0,
0,
0,
0,
0,
0,
0,
0,
0,
0,
0,
0,
0,
0,
0,
0,
0,
0,
0,
0,
0,
0,
0,
0,
0,
0,
0,
0,
0,
0,
0,
0,
0,
0,
0,
0,
0,
0,
0,
0,
0,
0,
0,
0,
0,
0,
0,
0,
0,
0,
0,
0,
0,
0,
0,
0,
0,
0,
0,
0,
0,
0,
0,
0,
0,
0,
0,
0,
0,
0,
0,
0,
0,
0,
0,
0,
0,
0,
0,
0,
0,
0,
0,
0,
0,
0,
0,
0,
0,
0,
0,
0,
0,
0,
0,
0,
0,
0,
0,
0,
0,
0,
0,
0,
0,
0,
0,
0,
0,
0,
0,
0,
0,
0,
0,
0,
0,
0,
0,
0,
1,
0,
0,
0,
0,
0,
0,
0,
0,
0,
0,
0,
0,
0,
0,
0,
0,
0,
0,
0,
0,
0,
0,
0,
0,
0,
0,
0,
0,
0,
0,
0,
0,
0,
0,
0,
0,
0,
0,
0,
0,
0,
0,
0,
0,
0,
0,
0,
0,
0,
0,
0,
0,
0,
0,
0,
0,
0,
0,
0,
0,
0,
0,
0,
0,
0,
0,
0,
0,
0,
0,
0,
0,
0,
0,
0,
0,
0,
0,
0,
0,
0,
0,
0,
0,
0,
0,
0,
0,
0,
0,
0,
0,
0,
0,
0,
0,
0,
0,
0,
0,
0,
0,
0,
0,
0,
0,
0,
0,
0,
0,
0,
0,
0,
0,
0,
0,
0,
0,
0,
0,
0,
0,
0,
0,
0,
0,
0,
0,
0,
0,
0,
0,
0,
0,
0,
0,
0,
0,
0,
0,
0,
0,
0,
0,
0,
0,
0,
0,
0,
0,
0,
0,
0,
0,
0,
0,
0,
0,
0,
0,
0,
0,
0,
0,
0,
0,
0,
0,
0,
0,
0,
0,
0,
0,
0,
0,
0,
0,
0,
0,
0,
0,
0,
0,
0,
0,
0,
0,
0,
0,
0,
0,
0,
0,
0,
0,
0,
0,
0,
0,
0,
0,
0,
0,
0,
0,
0,
0,
0,
0,
0,
0,
0,
0,
0,
0,
0,
0,
0,
0,
0,
0,
0,
0,
0,
0,
0,
0,
0,
0,
0,
0,
0,
0,
0,
0,
0,
0,
0,
0,
0,
0,
0,
0,
0,
0,
0,
0,
0,
0,
0,
0,
0,
0,
#ENDOFDATA   :