File: NeXLSpectrum/Zepellin/Standards/P std.msa
#FORMAT      : EMSA/MAS Spectral Data File
#VERSION     : 1.0
#TITLE       : GaP std
#DATE        : 11-OCT-2018
#TIME        : 00:24
#OWNER       : Unknown
#NPOINTS     : 4096
#NCOLUMNS    : 1
#XUNITS      : eV
#YUNITS      : counts
#DATATYPE    : Y
#XPERCHAN    : 9.99856
#OFFSET      : 1.63032
#BEAMKV      : 20
#SIGNALTYPE  : EDS
#ELEVANGLE   : 35
#AZIMANGLE   : 0
#LIVETIME    : 1161.35
#REALTIME    : 1600.92
#PROBECUR    : 0.97451
#TDEADLYR    : 0
#TACTLYR     : 0.045
#TALWIND     : 0.003
#CHOFFSET    : 0.0
#XLABEL      : Energy (eV)
#YLABEL      : Counts
#EDSDET      : SDUTW
##SPECIMEN   : GaP std
##D2STDCMP   : GaP,(P:30.7594),(Ga:69.2406),5.0
##DET_HASH   : 97086dfe-e5c2-9c77-3984-1d0b14bbbf41
##CALIB_HASH : 1a36e884-c26d-3547-51b1-d0bb2efdf95a
##WORKING    : 17.0 mm
##SAMPLE     : <BulkSample id="1">\n<mOrientation id="2">\n<double>0.0</double>\n<double>0.0</double>\n<double>-1.0</double>\n</mOrientation>\n</BulkSample>
#SPECTRUM    :
197780,
41591,
3076,
529,
200,
244,
648,
2576,
14635,
32394,
19443,
8893,
9093,
10946,
11996,
13944,
17938,
22029,
21405,
20675,
22543,
25547,
29187,
33043,
36349,
39012,
42590,
46393,
51276,
58516,
80510,
148865,
213228,
191605,
221994,
770363,
2086024,
2529829,
1362654,
374514,
83866,
34466,
23473,
20540,
19986,
20219,
20723,
21683,
22574,
24640,
25295,
24168,
24063,
24154,
24638,
25125,
26711,
28304,
30164,
31088,
31201,
31015,
32972,
45022,
96022,
290685,
729371,
1074834,
847429,
377805,
143429,
102037,
84333,
55777,
35941,
27289,
24447,
23275,
22918,
23006,
23178,
23206,
23490,
23614,
23943,
24033,
24335,
24698,
24447,
24480,
24705,
24331,
24821,
24820,
25088,
24788,
25013,
25001,
25107,
25121,
25511,
25998,
27041,
28698,
29577,
28350,
26443,
25521,
25150,
24768,
24410,
24492,
24369,
24301,
24398,
24166,
24017,
23801,
23790,
23560,
23518,
23450,
23525,
23505,
23303,
23501,
23022,
22842,
22637,
22584,
22561,
22602,
22843,
22874,
22842,
22705,
22290,
21756,
21711,
21678,
21511,
21236,
21075,
20919,
20831,
20607,
20460,
20510,
20350,
20044,
20140,
19835,
19852,
19896,
19388,
19498,
19244,
19086,
19031,
18944,
18879,
18480,
18372,
18529,
18309,
18266,
17959,
18109,
18168,
17923,
17383,
17491,
17553,
17251,
17100,
16935,
16698,
16988,
16824,
17225,
17238,
17037,
16716,
16410,
16086,
16042,
15894,
15810,
15625,
15544,
15541,
15595,
15029,
15060,
15114,
15048,
15106,
15039,
14803,
14414,
14504,
14296,
14255,
14224,
13980,
14032,
13806,
13663,
13736,
13712,
13718,
14100,
14567,
14798,
14597,
14148,
13587,
13099,
13045,
12628,
12588,
12442,
12293,
12287,
12296,
12106,
12129,
12096,
11986,
11917,
12038,
11735,
11957,
11704,
11752,
11752,
11781,
11385,
11187,
11214,
11142,
10970,
11079,
10845,
10899,
10793,
10767,
11065,
10923,
11091,
11155,
10881,
10522,
10483,
10240,
10029,
10162,
10027,
9811,
9767,
10016,
9850,
9784,
9777,
9346,
9420,
9448,
9573,
9302,
9136,
9370,
9151,
9219,
9071,
9162,
8945,
8798,
9031,
8772,
8689,
8735,
8559,
8686,
8574,
8502,
8488,
8542,
8527,
8585,
8293,
8293,
8352,
8307,
8215,
8312,
8407,
8267,
8381,
8557,
8601,
9389,
11245,
17113,
32102,
63880,
118373,
188207,
249920,
278533,
256852,
196656,
126305,
68696,
34301,
16894,
9933,
7830,
7316,
6945,
6989,
6772,
6782,
6682,
6529,
6520,
6474,
6430,
6358,
6432,
6464,
6477,
6436,
6643,
6717,
6933,
7313,
8100,
10481,
14964,
22181,
30921,
39127,
42535,
39811,
32834,
23693,
15987,
10700,
7821,
6098,
5499,
5248,
4830,
4932,
4961,
4771,
4632,
4732,
4555,
4666,
4494,
4514,
4520,
4364,
4411,
4376,
4456,
4473,
4171,
4402,
4306,
4357,
4351,
4431,
4629,
4694,
4790,
4633,
4485,
4326,
4260,
4046,
4070,
3961,
3916,
3797,
3825,
3727,
3762,
3721,
3791,
3634,
3677,
3576,
3615,
3468,
3564,
3568,
3469,
3487,
3527,
3444,
3340,
3377,
3357,
3328,
3342,
3397,
3323,
3273,
3335,
3053,
3201,
3151,
3089,
3069,
3173,
2993,
3074,
3026,
3128,
3003,
3018,
2951,
2960,
2860,
2817,
2865,
2746,
2768,
2716,
2650,
2630,
2608,
2670,
2565,
2541,
2519,
2614,
2456,
2481,
2399,
2425,
2478,
2378,
2301,
2339,
2327,
2250,
2261,
2237,
2248,
2169,
2171,
2157,
2157,
2167,
2102,
2137,
1997,
2037,
2038,
1953,
2016,
2016,
1907,
1888,
1808,
1940,
1895,
1872,
1884,
1857,
1788,
1796,
1775,
1739,
1735,
1706,
1658,
1662,
1655,
1615,
1624,
1650,
1602,
1528,
1557,
1465,
1457,
1498,
1466,
1434,
1445,
1381,
1482,
1454,
1378,
1359,
1322,
1342,
1350,
1268,
1235,
1280,
1330,
1302,
1189,
1200,
1261,
1205,
1161,
1156,
1156,
1190,
1105,
1070,
1012,
1042,
1112,
1093,
1101,
1016,
1020,
974,
996,
962,
999,
957,
888,
878,
879,
877,
884,
875,
807,
869,
819,
792,
792,
755,
741,
754,
795,
739,
724,
708,
711,
722,
729,
688,
689,
668,
665,
679,
619,
641,
648,
606,
598,
600,
637,
551,
591,
543,
541,
518,
566,
521,
515,
498,
512,
505,
460,
474,
450,
457,
451,
438,
412,
427,
407,
416,
399,
419,
396,
385,
387,
359,
344,
366,
342,
321,
337,
321,
344,
322,
302,
329,
306,
311,
308,
275,
250,
256,
267,
249,
250,
232,
230,
217,
213,
212,
238,
249,
247,
217,
206,
210,
192,
208,
191,
158,
138,
158,
137,
160,
131,
126,
136,
149,
122,
123,
127,
124,
80,
108,
96,
86,
96,
95,
88,
71,
91,
85,
77,
76,
50,
71,
73,
54,
59,
54,
51,
62,
46,
33,
33,
29,
28,
19,
22,
10,
21,
10,
10,
11,
11,
3,
7,
4,
6,
5,
5,
9,
2,
3,
6,
5,
5,
2,
5,
3,
4,
5,
2,
7,
5,
3,
4,
5,
3,
3,
4,
3,
4,
3,
0,
3,
2,
2,
0,
2,
3,
2,
1,
3,
1,
4,
3,
2,
6,
1,
2,
4,
7,
0,
0,
1,
4,
1,
2,
1,
3,
1,
1,
5,
1,
1,
1,
3,
3,
1,
0,
3,
1,
1,
0,
2,
1,
1,
2,
2,
1,
2,
0,
1,
3,
2,
1,
1,
1,
2,
0,
0,
1,
2,
1,
2,
2,
2,
1,
1,
0,
2,
0,
1,
4,
0,
1,
1,
2,
0,
0,
2,
1,
2,
3,
1,
1,
2,
1,
0,
1,
0,
2,
1,
3,
1,
2,
3,
1,
2,
1,
0,
0,
0,
2,
0,
1,
1,
1,
0,
0,
0,
0,
1,
2,
0,
1,
1,
1,
0,
1,
0,
2,
0,
1,
0,
2,
0,
0,
0,
1,
1,
0,
0,
3,
1,
1,
1,
0,
1,
0,
0,
0,
0,
0,
2,
2,
0,
0,
0,
0,
1,
1,
0,
1,
0,
0,
1,
0,
0,
0,
0,
0,
2,
0,
0,
1,
1,
0,
0,
1,
0,
0,
1,
0,
0,
0,
0,
0,
0,
0,
0,
0,
0,
0,
0,
0,
0,
0,
1,
2,
0,
0,
0,
0,
0,
0,
0,
0,
0,
1,
1,
0,
0,
0,
0,
0,
1,
0,
1,
0,
0,
0,
0,
0,
0,
1,
0,
0,
0,
1,
0,
0,
0,
0,
1,
0,
0,
0,
0,
0,
0,
0,
0,
0,
0,
0,
0,
0,
0,
0,
0,
0,
0,
0,
0,
0,
0,
0,
0,
0,
0,
0,
0,
0,
0,
0,
0,
0,
1,
0,
0,
1,
0,
0,
0,
0,
0,
0,
0,
0,
0,
0,
0,
0,
0,
0,
0,
0,
0,
0,
0,
0,
0,
0,
0,
0,
0,
0,
0,
0,
0,
0,
0,
0,
0,
0,
0,
0,
0,
0,
0,
0,
0,
0,
0,
0,
0,
0,
0,
0,
0,
0,
0,
0,
0,
0,
0,
0,
0,
0,
0,
0,
0,
0,
0,
0,
0,
0,
0,
0,
0,
0,
0,
0,
0,
0,
0,
0,
0,
0,
0,
0,
0,
0,
0,
0,
0,
0,
0,
0,
0,
0,
0,
0,
0,
0,
0,
0,
0,
0,
0,
0,
0,
0,
0,
0,
0,
0,
0,
0,
0,
0,
0,
0,
0,
0,
0,
0,
0,
0,
0,
0,
0,
0,
0,
0,
0,
0,
0,
1,
0,
0,
0,
0,
0,
0,
0,
0,
0,
0,
0,
0,
0,
0,
0,
0,
0,
0,
0,
0,
0,
0,
0,
0,
0,
0,
0,
0,
0,
0,
0,
0,
0,
0,
0,
0,
0,
0,
0,
0,
0,
0,
0,
0,
0,
0,
0,
0,
0,
0,
0,
0,
0,
0,
0,
0,
0,
0,
0,
0,
0,
0,
0,
0,
0,
0,
0,
0,
0,
0,
0,
0,
0,
0,
0,
0,
0,
0,
0,
0,
0,
0,
0,
0,
0,
0,
0,
0,
0,
0,
0,
0,
0,
0,
0,
0,
0,
0,
0,
0,
0,
0,
0,
0,
0,
0,
0,
0,
0,
0,
0,
0,
0,
0,
0,
0,
0,
0,
0,
0,
0,
0,
0,
0,
0,
0,
0,
0,
0,
0,
0,
0,
0,
0,
0,
0,
0,
0,
0,
0,
0,
0,
0,
0,
0,
0,
0,
0,
0,
0,
0,
0,
0,
0,
0,
0,
0,
0,
0,
0,
0,
0,
0,
0,
0,
0,
0,
0,
0,
0,
0,
0,
0,
0,
0,
0,
0,
0,
0,
0,
0,
0,
0,
0,
0,
0,
0,
0,
0,
0,
0,
0,
0,
0,
0,
0,
0,
0,
0,
0,
0,
0,
0,
0,
0,
0,
0,
0,
0,
0,
0,
0,
0,
0,
0,
0,
0,
0,
0,
0,
0,
0,
0,
0,
0,
0,
0,
0,
0,
0,
0,
0,
0,
0,
0,
0,
0,
0,
0,
0,
0,
0,
0,
0,
0,
0,
0,
0,
0,
0,
0,
0,
0,
0,
0,
0,
0,
0,
0,
0,
0,
0,
0,
0,
0,
0,
0,
0,
0,
0,
0,
0,
0,
0,
0,
0,
0,
0,
0,
0,
0,
0,
#ENDOFDATA   :