File: NeXLSpectrum/Zepellin/Standards/Pb std.msa
#FORMAT      : EMSA/MAS Spectral Data File
#VERSION     : 1.0
#TITLE       : Trimmed[K227 std,1610 eV,1993 eV]
#DATE        : 15-OCT-2018
#TIME        : 01:53
#OWNER       : Unknown
#NPOINTS     : 4096
#NCOLUMNS    : 1
#XUNITS      : eV
#YUNITS      : counts
#DATATYPE    : Y
#XPERCHAN    : 9.99856
#OFFSET      : 1.63032
#BEAMKV      : 20
#SIGNALTYPE  : EDS
#ELEVANGLE   : 35
#AZIMANGLE   : 0
#LIVETIME    : 1152.74
#REALTIME    : 1574.32
#PROBECUR    : 0.98835
#TDEADLYR    : 0
#TACTLYR     : 0.045
#TALWIND     : 0.003
#CHOFFSET    : 0.0
#XLABEL      : Energy (eV)
#YLABEL      : Counts
#EDSDET      : SDUTW
##SPECIMEN   : Trimmed[K227 std,1610 eV,1993 eV]
##D2STDCMP   : K227,(O:16.39),(Si:9.35),(Pb:74.27),5.0
##DET_HASH   : 97086dfe-e5c2-9c77-3984-1d0b14bbbf41
##CALIB_HASH : 1a36e884-c26d-3547-51b1-d0bb2efdf95a
##WORKING    : 17.0 mm
##SAMPLE     : <BulkSample id="1">\n<mOrientation id="2">\n<double>0.0</double>\n<double>0.0</double>\n<double>-1.0</double>\n</mOrientation>\n</BulkSample>
#SPECTRUM    :
147455,
30635,
2438,
486,
147,
314,
1229,
5607,
21456,
37484,
22058,
12262,
12649,
13847,
16500,
28711,
89366,
198069,
154906,
59029,
44663,
36133,
30645,
37603,
36475,
30143,
28652,
30155,
31934,
33277,
35073,
36781,
38034,
39403,
40535,
41588,
42994,
44064,
45387,
46564,
48214,
49129,
50621,
51187,
52513,
53529,
54372,
55761,
58198,
62004,
63188,
61042,
59085,
58348,
57866.4,
57486.6,
57106.9,
56727.2,
56347.4,
55967.7,
55588,
55208.2,
54828.5,
54448.7,
54069,
53689.3,
53309.5,
53316,
52887,
53604,
56688,
62469,
68885,
72870,
79432,
120019,
293906,
707486,
1129218,
1118192,
874351,
805200,
714261,
430292,
177456,
72301,
52607,
61336,
75773,
74758,
58557,
41792,
34063,
31676,
31438,
31872,
33394,
34377,
34778,
34684,
36298,
39889,
43426,
44443,
43182,
39506,
35803,
33644,
31916,
31153,
30377,
30138,
30393,
30635,
30823,
30851,
30935,
31297,
31336,
30968,
30343,
30137,
30277,
30357,
30749,
30786,
30746,
29996,
29428,
29168,
28924,
29145,
29033,
29260,
29530,
29528,
30095,
30190,
30131,
29813,
29310,
29677,
29096,
28598,
28528,
28593,
28324,
28435,
28493,
28509,
27962,
28195,
28187,
28199,
28155,
28647,
28593,
28662,
29112,
29013,
29087,
28753,
28198,
27693,
27450,
27030,
27097,
26643,
26521,
26609,
26407,
26116,
25913,
26003,
25952,
25913,
25792,
25670,
26041,
26312,
26587,
26338,
25790,
25420,
25422,
24772,
24958,
24775,
24646,
24375,
24280,
24209,
24177,
23801,
23929,
23774,
23413,
23522,
23701,
23071,
23368,
23096,
22760,
22894,
22924,
22632,
22510,
22523,
22272,
22234,
22667,
23599,
24548,
25099,
24770,
23833,
22715,
21785,
21341,
21301,
20585,
20724,
20645,
20780,
20335,
20432,
20211,
20160,
20183,
20313,
20035,
19940,
19744,
19927,
19916,
19968,
19679,
19477,
19377,
19127,
19143,
18881,
18749,
18663,
18704,
18648,
18296,
18282,
18752,
18671,
18652,
18195,
17958,
17870,
17888,
17464,
17528,
17275,
17266,
17081,
17097,
16910,
17039,
16882,
16723,
16471,
16703,
16384,
16444,
16433,
16274,
16135,
16234,
16102,
16070,
15845,
15789,
15707,
15638,
15617,
15449,
15388,
15382,
15386,
15345,
14986,
14837,
14815,
14950,
14905,
14685,
14790,
14661,
14455,
14377,
14619,
14237,
14239,
14035,
14019,
14129,
14176,
14760,
15306,
16165,
16757,
17349,
16885,
16438,
15104,
14584,
13762,
13432,
13205,
13198,
12908,
12782,
12973,
12777,
12497,
12471,
12411,
12275,
12240,
12344,
12176,
12145,
11899,
11815,
11873,
11781,
11809,
11868,
11518,
11491,
11512,
11452,
11509,
11427,
11355,
11368,
11413,
11624,
12119,
12986,
15328,
19910,
26494,
37213,
51326,
64772,
75123,
76239,
67303,
52480,
36894,
24199,
16670,
12670,
10971,
10448,
9961,
9803,
9817,
9652,
9681,
9484,
9616,
9436,
9170,
9099,
9144,
8979,
9006,
9068,
9040,
9204,
8917,
8987,
8901,
8824,
8756,
8701,
8488,
8334,
8384,
8274,
8041,
8247,
8113,
7891,
7927,
7760,
7625,
7764,
7762,
7575,
7370,
7639,
7482,
7689,
7674,
8006,
7905,
7925,
8073,
8462,
8137,
8277,
8239,
8095,
7885,
8049,
8107,
8555,
9941,
12713,
16802,
22541,
27669,
30724,
31268,
27667,
22942,
17648,
13285,
10500,
8668,
7943,
7328,
7215,
7065,
7076,
7149,
7028,
6843,
6460,
6056,
5857,
5488,
5450,
5302,
5166,
5079,
5043,
4976,
5104,
4855,
4843,
4838,
4737,
4684,
4750,
4671,
4704,
4549,
4508,
4465,
4372,
4527,
4309,
4374,
4278,
4285,
4208,
4238,
4069,
4155,
4097,
4032,
4038,
3985,
3912,
3855,
3893,
3927,
3884,
3816,
3774,
3794,
3782,
3684,
3683,
3553,
3616,
3550,
3630,
3860,
4266,
4566,
4978,
5201,
5358,
5064,
4762,
4492,
3879,
3548,
3360,
3347,
3273,
3214,
3256,
3408,
3443,
3409,
3451,
3269,
3104,
3024,
2840,
2672,
2670,
2574,
2554,
2484,
2463,
2517,
2489,
2523,
2476,
2482,
2346,
2293,
2306,
2333,
2309,
2330,
2277,
2288,
2120,
2092,
2114,
2022,
2027,
1906,
1941,
1913,
1927,
1988,
1841,
1906,
1845,
1832,
1777,
1733,
1790,
1772,
1700,
1719,
1628,
1719,
1634,
1580,
1597,
1535,
1506,
1505,
1507,
1413,
1488,
1447,
1412,
1350,
1347,
1378,
1311,
1303,
1338,
1272,
1215,
1246,
1238,
1219,
1173,
1224,
1169,
1163,
1094,
1077,
1095,
1034,
1035,
1023,
1021,
1047,
949,
963,
978,
921,
908,
919,
935,
851,
848,
847,
880,
759,
784,
779,
764,
707,
719,
712,
721,
675,
694,
678,
650,
635,
646,
594,
538,
574,
567,
565,
568,
522,
536,
500,
503,
441,
504,
494,
406,
389,
460,
377,
412,
377,
366,
382,
347,
311,
287,
300,
297,
306,
290,
272,
262,
250,
232,
247,
217,
194,
184,
158,
187,
199,
192,
149,
149,
161,
120,
120,
118,
111,
92,
73,
61,
72,
55,
45,
40,
38,
24,
15,
13,
19,
10,
15,
11,
11,
10,
6,
10,
8,
12,
8,
10,
8,
7,
7,
14,
13,
12,
11,
6,
10,
3,
8,
7,
11,
3,
11,
8,
10,
9,
5,
12,
10,
11,
10,
6,
9,
9,
13,
10,
6,
11,
7,
9,
13,
5,
3,
2,
4,
8,
5,
6,
6,
3,
4,
5,
3,
7,
9,
2,
6,
5,
0,
6,
5,
7,
3,
5,
6,
3,
3,
3,
3,
5,
4,
3,
4,
9,
4,
3,
2,
4,
2,
1,
4,
5,
3,
2,
4,
7,
2,
3,
0,
6,
3,
1,
5,
5,
3,
0,
5,
3,
8,
4,
5,
5,
3,
2,
5,
6,
3,
2,
3,
2,
6,
5,
3,
5,
2,
2,
2,
3,
2,
1,
1,
5,
1,
3,
4,
2,
3,
0,
2,
1,
2,
2,
2,
1,
4,
0,
4,
2,
1,
4,
0,
2,
2,
0,
5,
2,
1,
2,
3,
0,
2,
2,
4,
0,
3,
7,
1,
3,
1,
4,
1,
0,
4,
1,
1,
1,
2,
1,
0,
1,
0,
2,
3,
0,
2,
1,
1,
1,
0,
2,
1,
0,
0,
2,
0,
0,
1,
1,
0,
0,
1,
2,
1,
0,
1,
1,
1,
2,
2,
1,
3,
1,
1,
2,
2,
0,
0,
1,
0,
1,
0,
1,
1,
0,
0,
1,
3,
2,
0,
1,
1,
1,
0,
1,
0,
0,
0,
0,
1,
2,
0,
1,
0,
1,
1,
0,
0,
0,
0,
0,
0,
0,
0,
0,
2,
1,
0,
0,
1,
0,
2,
0,
1,
2,
0,
1,
0,
1,
1,
0,
0,
1,
0,
0,
1,
2,
1,
0,
0,
1,
1,
0,
0,
0,
1,
0,
0,
0,
0,
0,
0,
0,
0,
0,
0,
2,
1,
0,
0,
0,
0,
0,
0,
1,
1,
2,
1,
1,
0,
0,
0,
0,
0,
0,
0,
0,
0,
0,
0,
1,
0,
1,
1,
0,
0,
0,
1,
0,
0,
0,
1,
0,
0,
0,
0,
0,
0,
0,
0,
0,
0,
0,
0,
0,
0,
0,
0,
0,
1,
0,
0,
0,
0,
0,
0,
0,
0,
0,
1,
0,
0,
0,
0,
0,
0,
0,
0,
0,
0,
0,
1,
0,
0,
0,
0,
0,
0,
0,
1,
0,
0,
0,
0,
0,
0,
0,
0,
0,
0,
0,
0,
0,
0,
0,
0,
0,
0,
0,
0,
0,
0,
0,
0,
0,
0,
0,
0,
0,
0,
0,
0,
0,
0,
0,
0,
0,
0,
0,
0,
0,
0,
0,
0,
0,
0,
0,
0,
0,
0,
0,
0,
0,
0,
0,
0,
0,
0,
0,
0,
0,
0,
0,
0,
0,
0,
0,
0,
0,
0,
0,
0,
0,
0,
0,
0,
0,
0,
0,
0,
0,
0,
0,
0,
0,
0,
0,
0,
0,
0,
0,
0,
0,
0,
0,
0,
0,
0,
0,
0,
0,
0,
0,
0,
0,
0,
0,
0,
0,
0,
0,
0,
0,
0,
0,
0,
0,
0,
0,
0,
0,
0,
0,
0,
0,
0,
0,
0,
0,
0,
0,
0,
0,
0,
0,
0,
0,
0,
0,
0,
0,
0,
0,
0,
0,
0,
0,
0,
0,
0,
0,
0,
0,
0,
0,
0,
0,
0,
0,
0,
0,
0,
0,
0,
0,
0,
0,
0,
0,
0,
0,
0,
0,
0,
0,
0,
0,
0,
0,
0,
0,
0,
0,
0,
0,
0,
0,
0,
0,
0,
0,
0,
0,
0,
0,
0,
0,
0,
0,
0,
0,
0,
0,
0,
0,
0,
0,
0,
0,
0,
0,
0,
0,
0,
0,
0,
0,
0,
0,
0,
0,
0,
0,
0,
0,
0,
0,
0,
0,
0,
0,
0,
0,
0,
0,
0,
0,
0,
0,
0,
0,
0,
0,
0,
0,
0,
0,
0,
0,
0,
0,
0,
0,
0,
0,
0,
0,
0,
0,
0,
0,
0,
0,
0,
0,
0,
0,
0,
0,
0,
0,
0,
0,
0,
0,
0,
0,
0,
0,
0,
0,
0,
0,
0,
0,
0,
0,
0,
0,
0,
0,
0,
0,
0,
0,
0,
0,
0,
0,
0,
0,
0,
0,
0,
0,
0,
0,
0,
0,
0,
0,
0,
0,
0,
0,
0,
0,
0,
0,
0,
0,
0,
0,
0,
#ENDOFDATA   :