File: NeXLSpectrum/Zepellin/Standards/Si std.msa
#FORMAT      : EMSA/MAS Spectral Data File
#VERSION     : 1.0
#TITLE       : Si std
#DATE        : 11-OCT-2018
#TIME        : 11:48
#OWNER       : Unknown
#NPOINTS     : 4096
#NCOLUMNS    : 1
#XUNITS      : eV
#YUNITS      : counts
#DATATYPE    : Y
#XPERCHAN    : 9.99856
#OFFSET      : 1.63032
#BEAMKV      : 20
#SIGNALTYPE  : EDS
#ELEVANGLE   : 35
#AZIMANGLE   : 0
#LIVETIME    : 1149.58
#REALTIME    : 1771.99
#PROBECUR    : 0.97465
#TDEADLYR    : 0
#TACTLYR     : 0.045
#TALWIND     : 0.003
#CHOFFSET    : 0.0
#XLABEL      : Energy (eV)
#YLABEL      : Counts
#EDSDET      : SDUTW
##SPECIMEN   : Si std
##D2STDCMP   : Si,(Si:100.0),2.95
##DET_HASH   : 97086dfe-e5c2-9c77-3984-1d0b14bbbf41
##CALIB_HASH : 1a36e884-c26d-3547-51b1-d0bb2efdf95a
##WORKING    : 17.0 mm
##SAMPLE     : <BulkSample id="1">\n<mOrientation id="2">\n<double>0.0</double>\n<double>0.0</double>\n<double>-1.0</double>\n</mOrientation>\n</BulkSample>
#SPECTRUM    :
200689,
42139,
2812,
431,
144,
145,
379,
1564,
6434,
12170,
7975,
5307,
5684,
6507,
7368,
8852,
11949,
15412,
14798,
13741,
14671,
16739,
18878,
21081,
23311,
25371,
27430,
29622,
31536,
33599,
35300,
36849,
38382,
39911,
41413,
42463,
43210,
44010,
44500,
44896,
45687,
46726,
47237,
47880,
49502,
50614,
52590,
54910,
59530,
66494,
71178,
72980,
73663,
74477,
94974,
337119,
1728926,
5105619,
7311872,
5060864,
1879915,
605702,
270279,
102799,
30100,
13371,
10763,
10657,
10724,
10833,
11000,
11110,
11402,
11463,
11826,
12275,
12201,
12384,
12576,
12686,
12771,
12834,
13272,
13343,
13691,
13529,
13580,
13861,
14003,
13988,
14139,
13931,
14275,
14200,
14106,
14185,
14284,
14320,
14317,
14257,
14237,
14186,
14200,
14240,
14422,
14479,
14420,
14550,
14488,
14388,
14369,
14633,
15561,
18486,
28396,
44279,
54310,
48303,
33803,
22813,
17590,
14998,
13548,
13104,
13026,
12569,
12498,
12586,
12250,
12490,
12297,
12389,
12084,
12322,
12042,
12083,
11990,
11991,
11941,
11817,
11632,
11624,
11493,
11404,
11474,
11292,
11257,
11014,
11008,
11168,
11134,
10998,
10668,
10783,
10553,
10625,
10622,
10400,
10276,
10176,
10210,
10050,
10118,
10189,
9807,
9964,
9809,
9771,
9633,
9599,
9552,
9256,
9590,
9534,
9610,
9474,
9279,
9374,
9304,
8964,
9089,
9046,
8830,
8683,
8811,
8494,
8506,
8365,
8391,
8203,
8223,
8216,
8079,
8191,
8064,
7808,
7879,
7990,
7733,
7640,
7523,
7516,
7759,
7513,
7535,
7457,
7303,
7368,
7272,
7169,
7109,
7287,
7670,
7472,
7320,
7163,
6974,
6767,
6661,
6811,
6509,
6577,
6536,
6651,
6405,
6587,
6352,
6192,
6268,
6218,
6096,
6130,
5995,
5999,
6051,
6084,
5926,
5858,
5632,
5739,
5719,
5663,
5710,
5530,
5699,
5454,
5408,
5552,
5402,
5524,
5407,
5238,
5452,
5229,
5244,
4974,
5077,
4982,
4970,
5018,
4863,
4975,
4836,
4865,
4845,
4951,
4673,
4789,
4848,
4650,
4643,
4505,
4656,
4565,
4465,
4551,
4417,
4352,
4381,
4373,
4323,
4304,
4272,
4194,
4234,
4253,
4141,
4120,
3979,
4048,
4061,
4030,
3870,
3985,
3911,
3814,
3802,
3831,
3822,
3765,
3724,
3618,
3770,
3587,
3565,
3608,
3499,
3591,
3548,
3571,
3379,
3463,
3426,
3477,
3407,
3338,
3302,
3352,
3261,
3252,
3250,
3226,
3214,
3198,
3120,
3122,
3127,
3058,
3017,
3079,
3001,
3033,
3099,
2929,
2838,
2917,
2863,
2889,
2836,
2854,
2741,
2706,
2755,
2643,
2702,
2767,
2689,
2634,
2634,
2690,
2641,
2591,
2602,
2588,
2516,
2569,
2398,
2465,
2444,
2353,
2447,
2323,
2371,
2279,
2250,
2334,
2158,
2307,
2208,
2199,
2115,
2284,
2133,
2167,
2086,
2125,
2135,
2105,
2106,
2062,
2035,
1917,
1966,
1931,
1946,
1943,
1913,
1883,
1864,
1860,
1826,
1823,
1809,
1777,
1804,
1816,
1787,
1732,
1688,
1729,
1723,
1618,
1685,
1642,
1582,
1725,
1574,
1634,
1595,
1562,
1455,
1559,
1537,
1557,
1480,
1496,
1423,
1462,
1445,
1490,
1518,
1501,
1411,
1409,
1423,
1396,
1297,
1444,
1312,
1297,
1334,
1268,
1289,
1281,
1205,
1255,
1182,
1230,
1250,
1154,
1168,
1158,
1126,
1183,
1171,
1136,
1101,
1119,
1068,
1047,
1059,
1026,
1051,
1040,
987,
986,
1025,
954,
968,
939,
951,
888,
904,
893,
885,
870,
913,
821,
904,
894,
851,
865,
832,
803,
850,
742,
811,
819,
768,
748,
729,
788,
761,
726,
723,
692,
696,
718,
689,
699,
648,
697,
666,
657,
625,
617,
606,
606,
609,
604,
603,
637,
556,
561,
553,
552,
556,
554,
573,
531,
503,
491,
522,
525,
491,
470,
481,
475,
437,
469,
480,
470,
453,
440,
425,
405,
409,
396,
396,
382,
433,
389,
421,
418,
389,
381,
370,
380,
347,
357,
350,
323,
343,
323,
328,
341,
326,
302,
305,
342,
283,
311,
289,
308,
260,
293,
224,
291,
261,
257,
242,
251,
276,
231,
244,
229,
220,
242,
236,
216,
231,
215,
213,
207,
200,
180,
202,
200,
175,
190,
184,
183,
183,
158,
169,
164,
162,
158,
167,
154,
142,
143,
142,
132,
136,
142,
115,
120,
119,
123,
122,
106,
108,
105,
127,
97,
106,
91,
102,
78,
80,
106,
91,
98,
82,
73,
79,
71,
65,
71,
54,
77,
74,
63,
68,
71,
60,
53,
58,
51,
44,
42,
57,
48,
52,
33,
42,
35,
33,
41,
34,
31,
42,
27,
28,
26,
23,
24,
25,
22,
19,
17,
17,
18,
20,
17,
9,
17,
16,
10,
12,
5,
3,
6,
6,
7,
2,
5,
6,
1,
3,
1,
1,
4,
1,
0,
0,
1,
2,
0,
1,
0,
1,
1,
1,
4,
0,
0,
0,
0,
1,
2,
0,
2,
0,
0,
1,
1,
0,
0,
0,
0,
1,
1,
0,
0,
0,
1,
0,
0,
0,
0,
1,
2,
0,
1,
0,
0,
0,
0,
0,
2,
1,
0,
0,
0,
1,
1,
0,
0,
0,
2,
0,
1,
0,
1,
1,
0,
0,
0,
0,
0,
0,
0,
0,
0,
0,
0,
0,
0,
0,
0,
1,
0,
0,
0,
0,
0,
0,
0,
0,
1,
0,
0,
1,
0,
0,
0,
0,
0,
0,
0,
1,
0,
0,
0,
0,
0,
0,
0,
0,
0,
0,
0,
0,
0,
0,
0,
0,
0,
0,
0,
0,
0,
0,
1,
0,
0,
0,
0,
0,
0,
0,
0,
0,
0,
0,
0,
0,
0,
0,
0,
0,
0,
0,
0,
0,
1,
0,
0,
0,
0,
0,
0,
0,
0,
0,
0,
0,
0,
0,
0,
0,
0,
0,
0,
0,
0,
0,
0,
0,
0,
0,
0,
0,
0,
0,
0,
0,
0,
0,
0,
0,
0,
0,
0,
0,
0,
0,
0,
0,
0,
0,
1,
0,
0,
0,
0,
0,
0,
0,
0,
0,
0,
0,
0,
0,
0,
1,
0,
0,
0,
0,
0,
0,
0,
0,
0,
0,
0,
0,
0,
0,
0,
0,
0,
0,
0,
0,
0,
0,
1,
0,
0,
0,
0,
0,
0,
0,
0,
0,
0,
0,
0,
0,
1,
0,
0,
0,
0,
0,
0,
0,
0,
0,
0,
0,
0,
0,
0,
0,
0,
0,
0,
0,
0,
0,
0,
0,
0,
0,
0,
0,
0,
0,
0,
0,
0,
0,
0,
0,
0,
0,
0,
0,
0,
0,
0,
0,
0,
0,
0,
0,
0,
0,
0,
0,
0,
0,
0,
0,
0,
0,
0,
0,
0,
0,
0,
0,
0,
0,
0,
0,
0,
0,
0,
0,
0,
0,
0,
0,
0,
0,
0,
0,
0,
0,
0,
0,
0,
0,
0,
0,
0,
0,
0,
0,
0,
0,
0,
0,
0,
0,
0,
0,
0,
0,
0,
0,
0,
0,
0,
0,
0,
0,
0,
0,
0,
0,
0,
0,
0,
0,
0,
0,
0,
0,
0,
0,
0,
0,
0,
0,
0,
0,
0,
0,
0,
0,
0,
0,
0,
0,
0,
0,
0,
0,
0,
0,
0,
0,
0,
0,
0,
0,
0,
0,
0,
0,
0,
0,
0,
0,
0,
0,
0,
0,
0,
0,
0,
0,
0,
0,
0,
0,
0,
0,
0,
0,
0,
0,
0,
0,
0,
0,
0,
0,
0,
0,
0,
0,
0,
0,
0,
0,
0,
0,
0,
0,
0,
0,
0,
0,
0,
0,
0,
0,
0,
0,
0,
0,
0,
0,
0,
0,
0,
0,
0,
0,
0,
0,
0,
0,
0,
0,
0,
0,
0,
0,
0,
0,
0,
0,
0,
0,
0,
0,
0,
0,
0,
0,
0,
0,
0,
0,
0,
0,
0,
0,
0,
0,
0,
0,
0,
0,
0,
0,
0,
0,
0,
0,
0,
0,
0,
0,
0,
0,
0,
0,
0,
0,
0,
0,
0,
0,
0,
0,
0,
0,
0,
0,
0,
0,
0,
0,
0,
0,
0,
0,
0,
0,
0,
0,
0,
0,
0,
0,
0,
0,
0,
0,
0,
0,
0,
0,
0,
0,
0,
0,
0,
0,
0,
0,
0,
0,
0,
0,
0,
0,
0,
0,
0,
0,
0,
0,
0,
0,
0,
0,
0,
0,
0,
0,
0,
0,
0,
0,
0,
0,
0,
0,
0,
0,
0,
0,
0,
0,
0,
0,
0,
0,
0,
0,
0,
0,
0,
0,
0,
0,
0,
0,
0,
0,
0,
0,
0,
0,
0,
0,
0,
0,
0,
0,
0,
0,
0,
0,
0,
0,
0,
0,
0,
0,
0,
0,
0,
0,
0,
0,
0,
0,
0,
0,
0,
0,
0,
0,
0,
0,
0,
0,
0,
0,
0,
0,
0,
0,
0,
0,
0,
0,
0,
0,
0,
0,
0,
0,
0,
0,
0,
0,
0,
0,
0,
0,
0,
0,
0,
0,
0,
0,
0,
0,
0,
0,
0,
0,
0,
0,
0,
0,
0,
0,
0,
0,
0,
0,
0,
0,
0,
0,
0,
0,
0,
0,
0,
#ENDOFDATA   :