File: NeXLSpectrum/Zepellin/Standards/Sn std.msa
#FORMAT      : EMSA/MAS Spectral Data File
#VERSION     : 1.0
#TITLE       : Sn std
#DATE        : 15-OCT-2018
#TIME        : 11:47
#OWNER       : Unknown
#NPOINTS     : 4096
#NCOLUMNS    : 1
#XUNITS      : eV
#YUNITS      : counts
#DATATYPE    : Y
#XPERCHAN    : 9.99856
#OFFSET      : 1.63032
#BEAMKV      : 20
#SIGNALTYPE  : EDS
#ELEVANGLE   : 35
#AZIMANGLE   : 0
#LIVETIME    : 1166.83
#REALTIME    : 1628.69
#PROBECUR    : 0.98878
#TDEADLYR    : 0
#TACTLYR     : 0.045
#TALWIND     : 0.003
#CHOFFSET    : 0.0
#XLABEL      : Energy (eV)
#YLABEL      : Counts
#EDSDET      : SDUTW
##SPECIMEN   : Sn std
##D2STDCMP   : Sn,(Sn:100.0),5.0
##DET_HASH   : 97086dfe-e5c2-9c77-3984-1d0b14bbbf41
##CALIB_HASH : 1a36e884-c26d-3547-51b1-d0bb2efdf95a
##WORKING    : 17.0 mm
##SAMPLE     : <BulkSample id="1">\n<mOrientation id="2">\n<double>0.0</double>\n<double>0.0</double>\n<double>-1.0</double>\n</mOrientation>\n</BulkSample>
#SPECTRUM    :
150904,
32090,
2802,
490,
237,
652,
2574,
8434,
22936,
32924,
23626,
33764,
89537,
135419,
87621,
52080,
52950,
48838,
31360,
17409,
14952,
16266,
21073,
26367,
25262,
21774,
19999,
20079,
20407,
20818,
21830,
22703,
23924,
25050,
26554,
27330,
28518,
29893,
30920,
31774,
32917,
34623,
35584,
36931,
38162,
38532,
39572,
41166,
44499,
50939,
52310,
48259,
44631,
44528,
46557,
51734,
62101,
66974,
61213,
54120,
51393,
50834,
50249,
53466,
56072,
55828,
53343,
52516,
52024,
51345,
51783,
52825,
53413,
53172,
52180,
52094,
52333,
52270,
52498,
52620,
52696,
52830,
52587,
52363,
52598,
52308,
52840,
52948,
53334,
52762,
52201,
52026,
52141,
52146,
51995,
51863,
51990,
52268,
54900,
62517,
80069,
100690,
105780,
89097,
68731,
57869,
55279,
58757,
66353,
74579,
83407,
120721,
277817,
688729,
1268957,
1550158,
1229266,
651778,
268728,
165402,
270006,
508481,
712242,
713966,
544580,
362164,
233826,
157842,
141789,
180696,
224573,
213430,
149925,
87243,
54390,
48696,
61010,
80367,
88391,
75641,
52618,
36324,
30606,
32394,
39857,
48351,
51183,
45981,
37462,
30105,
26328,
24846,
23861,
23451,
23425,
23780,
23400,
23373,
23819,
23791,
23911,
23601,
23753,
23801,
23819,
23377,
23681,
23479,
23649,
23511,
23055,
23528,
23443,
23556,
23490,
23274,
23933,
23191,
23378,
23554,
23693,
23763,
23825,
23093,
23129,
22770,
22928,
22846,
22498,
22526,
22894,
22688,
22533,
22472,
22228,
22073,
22422,
22413,
22163,
21753,
21786,
21695,
21395,
21634,
21444,
21567,
21193,
20937,
20988,
21079,
21393,
21335,
22383,
22257,
22288,
21750,
21520,
21084,
20444,
20251,
20054,
20112,
20074,
19957,
20011,
19878,
19940,
20337,
21206,
20849,
21295,
20916,
20274,
20048,
19851,
19858,
20367,
20807,
20869,
20473,
19761,
19236,
19105,
18982,
18890,
19156,
19106,
18724,
18519,
18624,
18289,
17822,
17840,
17734,
17604,
17416,
17120,
17070,
16773,
16799,
16891,
16820,
16514,
16536,
16376,
16223,
16366,
16186,
16198,
16097,
16029,
15944,
15627,
15614,
15612,
15572,
15636,
15402,
15343,
15169,
15079,
15039,
14836,
14620,
14714,
14714,
14484,
14568,
14868,
14518,
14264,
14124,
13945,
14164,
14102,
14140,
13988,
13875,
13867,
13558,
13711,
13551,
13629,
13512,
13363,
13319,
13178,
13026,
13030,
13120,
12856,
12788,
12798,
12774,
12654,
12855,
12651,
12551,
12483,
12194,
12229,
12067,
11952,
11951,
12019,
11842,
11764,
11930,
11795,
11582,
11514,
11444,
11438,
11433,
11282,
11214,
11079,
11092,
11018,
10996,
10746,
10917,
10668,
10642,
10547,
10821,
10638,
10466,
10490,
10421,
10669,
10577,
10730,
10511,
10190,
10032,
10019,
9915,
9827,
9737,
9591,
9640,
9592,
9486,
9412,
9353,
9117,
9118,
9094,
9266,
9177,
9077,
8916,
8881,
8869,
8837,
8640,
8666,
8597,
8558,
8434,
8423,
8286,
8167,
8173,
8298,
7984,
7984,
7948,
8012,
7870,
7689,
7702,
7666,
7500,
7571,
7554,
7503,
7357,
7411,
7404,
7258,
7247,
7055,
7146,
7018,
7090,
7014,
7012,
6850,
6628,
6749,
6700,
6725,
6723,
6542,
6492,
6549,
6608,
6541,
6623,
6454,
6535,
6304,
6222,
6023,
5971,
6022,
5999,
5970,
5929,
5726,
5575,
5860,
5716,
5583,
5476,
5427,
5426,
5295,
5291,
5309,
5283,
5176,
5354,
5029,
5129,
4965,
4874,
4854,
4825,
4936,
4762,
4749,
4722,
4588,
4675,
4524,
4595,
4426,
4450,
4367,
4310,
4367,
4301,
4153,
4240,
4306,
4095,
4023,
4087,
3994,
4077,
3913,
3957,
3821,
3814,
3830,
3834,
3793,
3734,
3753,
3680,
3562,
3547,
3516,
3569,
3517,
3428,
3347,
3454,
3284,
3311,
3287,
3193,
3233,
3156,
3136,
3176,
2951,
3074,
3030,
2939,
2909,
2865,
2851,
2940,
2914,
2734,
2762,
2724,
2665,
2695,
2591,
2624,
2534,
2636,
2522,
2553,
2461,
2471,
2403,
2373,
2402,
2358,
2313,
2243,
2266,
2296,
2176,
2177,
2118,
2142,
2143,
1969,
1944,
2009,
2036,
1881,
1895,
1882,
1834,
1804,
1785,
1829,
1793,
1747,
1730,
1742,
1659,
1677,
1602,
1690,
1597,
1597,
1605,
1543,
1434,
1480,
1492,
1396,
1465,
1368,
1426,
1339,
1314,
1290,
1327,
1330,
1193,
1306,
1279,
1264,
1186,
1231,
1193,
1149,
1136,
1107,
1101,
1068,
1007,
1030,
1036,
970,
1009,
892,
938,
861,
923,
936,
939,
893,
850,
830,
828,
842,
780,
779,
747,
734,
722,
695,
707,
684,
663,
681,
637,
690,
660,
610,
616,
574,
579,
599,
555,
548,
501,
533,
531,
482,
476,
484,
417,
480,
437,
452,
425,
409,
383,
353,
397,
335,
329,
345,
299,
324,
292,
287,
274,
264,
245,
262,
249,
221,
225,
207,
195,
194,
181,
167,
148,
126,
172,
136,
157,
119,
103,
85,
99,
92,
88,
58,
60,
57,
55,
38,
29,
32,
27,
11,
21,
13,
18,
5,
14,
8,
17,
8,
6,
11,
6,
6,
7,
11,
8,
1,
13,
6,
12,
11,
3,
12,
9,
9,
12,
8,
6,
4,
8,
4,
11,
8,
8,
6,
8,
5,
5,
2,
6,
10,
6,
8,
5,
3,
1,
3,
5,
6,
9,
4,
5,
5,
8,
6,
5,
9,
7,
5,
11,
10,
5,
7,
3,
2,
4,
3,
7,
6,
7,
4,
4,
3,
3,
7,
2,
1,
4,
4,
3,
0,
2,
4,
1,
4,
6,
2,
3,
3,
6,
3,
1,
3,
5,
2,
4,
5,
2,
3,
1,
4,
2,
2,
1,
0,
1,
1,
0,
3,
2,
1,
1,
1,
2,
1,
2,
1,
1,
4,
0,
0,
0,
2,
3,
1,
3,
1,
0,
1,
1,
1,
2,
2,
2,
1,
1,
2,
0,
3,
4,
1,
1,
1,
1,
2,
1,
0,
2,
3,
1,
3,
0,
2,
2,
0,
1,
1,
0,
1,
0,
1,
3,
0,
0,
1,
2,
1,
1,
2,
1,
1,
1,
2,
1,
3,
1,
1,
0,
1,
0,
2,
3,
1,
1,
0,
0,
1,
0,
0,
0,
0,
0,
1,
0,
1,
0,
1,
1,
0,
0,
1,
0,
1,
0,
1,
2,
0,
1,
0,
0,
0,
0,
0,
1,
0,
0,
0,
0,
0,
1,
1,
0,
0,
1,
0,
1,
0,
0,
0,
2,
0,
2,
0,
0,
0,
0,
1,
0,
0,
1,
0,
0,
1,
1,
0,
0,
1,
0,
0,
0,
0,
1,
0,
0,
1,
0,
0,
0,
0,
0,
0,
1,
0,
1,
0,
0,
0,
1,
0,
0,
1,
0,
0,
1,
0,
0,
0,
0,
0,
0,
0,
0,
1,
0,
0,
0,
0,
0,
0,
1,
0,
0,
0,
0,
0,
0,
0,
0,
0,
0,
0,
0,
0,
0,
0,
1,
0,
0,
0,
0,
0,
0,
0,
0,
0,
0,
0,
0,
0,
0,
0,
0,
0,
0,
0,
0,
0,
0,
0,
0,
0,
0,
1,
0,
0,
0,
0,
0,
0,
0,
0,
0,
0,
0,
0,
0,
0,
0,
0,
0,
0,
0,
0,
0,
0,
0,
0,
0,
0,
0,
0,
0,
0,
0,
1,
0,
0,
0,
0,
0,
0,
1,
0,
0,
0,
0,
0,
0,
0,
0,
0,
0,
0,
0,
0,
0,
0,
0,
0,
0,
0,
0,
0,
0,
0,
0,
0,
0,
0,
0,
0,
0,
0,
0,
0,
0,
0,
0,
0,
0,
0,
0,
0,
0,
0,
0,
0,
0,
0,
0,
0,
0,
0,
0,
0,
0,
0,
0,
0,
0,
0,
0,
0,
0,
0,
0,
0,
0,
0,
0,
0,
0,
0,
0,
0,
0,
0,
0,
0,
0,
0,
0,
0,
0,
0,
0,
0,
0,
0,
0,
0,
0,
0,
0,
0,
0,
0,
0,
0,
0,
0,
0,
0,
0,
0,
0,
0,
0,
0,
0,
0,
0,
0,
0,
0,
0,
0,
0,
0,
0,
0,
0,
0,
0,
0,
0,
0,
0,
0,
0,
0,
0,
0,
0,
0,
0,
0,
0,
0,
0,
0,
0,
0,
0,
0,
0,
0,
0,
0,
0,
0,
0,
0,
0,
0,
0,
0,
0,
0,
0,
0,
0,
0,
0,
0,
0,
0,
0,
0,
0,
0,
0,
0,
0,
0,
0,
0,
0,
0,
0,
0,
0,
0,
0,
0,
0,
0,
0,
0,
0,
0,
0,
0,
0,
0,
0,
0,
0,
0,
0,
0,
0,
0,
0,
0,
0,
0,
0,
0,
0,
0,
0,
0,
0,
0,
0,
0,
0,
0,
0,
0,
0,
0,
0,
0,
0,
0,
0,
0,
0,
0,
0,
0,
0,
0,
0,
0,
0,
0,
0,
0,
0,
0,
0,
0,
0,
0,
0,
0,
0,
0,
0,
0,
0,
0,
0,
0,
0,
0,
0,
0,
0,
0,
0,
0,
0,
0,
0,
0,
0,
0,
0,
0,
0,
0,
0,
0,
0,
0,
0,
0,
0,
0,
0,
0,
0,
0,
0,
0,
0,
0,
0,
0,
0,
0,
0,
0,
0,
0,
0,
0,
0,
0,
0,
0,
0,
0,
0,
0,
0,
0,
0,
0,
0,
0,
0,
0,
0,
0,
0,
0,
0,
0,
0,
0,
0,
#ENDOFDATA   :