File: NeXLSpectrum/Zepellin/Standards/Sr std.msa
#FORMAT      : EMSA/MAS Spectral Data File
#VERSION     : 1.0
#TITLE       : SrF2 std
#DATE        : 15-OCT-2018
#TIME        : 10:06
#OWNER       : Unknown
#NPOINTS     : 4096
#NCOLUMNS    : 1
#XUNITS      : eV
#YUNITS      : counts
#DATATYPE    : Y
#XPERCHAN    : 9.99856
#OFFSET      : 1.63032
#BEAMKV      : 20
#SIGNALTYPE  : EDS
#ELEVANGLE   : 35
#AZIMANGLE   : 0
#LIVETIME    : 1171.72
#REALTIME    : 1522.99
#PROBECUR    : 0.98577
#TDEADLYR    : 0
#TACTLYR     : 0.045
#TALWIND     : 0.003
#CHOFFSET    : 0.0
#XLABEL      : Energy (eV)
#YLABEL      : Counts
#EDSDET      : SDUTW
##SPECIMEN   : SrF2 std
##D2STDCMP   : SrF2,(F:30.2477),(Sr:69.7523),5.0
##DET_HASH   : 97086dfe-e5c2-9c77-3984-1d0b14bbbf41
##CALIB_HASH : 1a36e884-c26d-3547-51b1-d0bb2efdf95a
##WORKING    : 17.0 mm
##SAMPLE     : <BulkSample id="1">\n<mOrientation id="2">\n<double>0.0</double>\n<double>0.0</double>\n<double>-1.0</double>\n</mOrientation>\n</BulkSample>
#SPECTRUM    :
151257,
29525,
2085,
399,
289,
399,
967,
3359,
12364,
22608,
13390,
7656,
8006,
8608,
9752,
11692,
14850,
18192,
18902,
21837,
45611,
184542,
481509,
447021,
144843,
32909,
21338,
22326,
23734,
25318,
26171,
27442,
29230,
30705,
32449,
33755,
35306,
36962,
38294,
39638,
40869,
41729,
43156,
44001,
45212,
46399,
47012,
47936,
49962,
52574,
57395,
72795,
107620,
127153,
114659,
95624,
81320,
107064,
355911,
1112110,
1947539,
1922905,
1381594,
876264,
440101,
190773,
88542,
44158,
27692,
23379,
22503,
23241,
25656,
28003,
27709,
24153,
22303,
21508,
21664,
21746,
21892,
22704,
23567,
24916,
24575,
23831,
23507,
23370,
23407,
23216,
23382,
23251,
23589,
23509,
23626,
23941,
24007,
23909,
24052,
24004,
24275,
24247,
24102,
24488,
24077,
24139,
23910,
24277,
24130,
24179,
23948,
24471,
24406,
23941,
24298,
24108,
24013,
24423,
24284,
25064,
26516,
27088,
27610,
27504,
26131,
24911,
24182,
23392,
22962,
22529,
22653,
22612,
22256,
22522,
22328,
21660,
21821,
21513,
21425,
21542,
21211,
21262,
21219,
21026,
21238,
20827,
21046,
20799,
20897,
20857,
20735,
20218,
20208,
19918,
19454,
19742,
19470,
19696,
19558,
19320,
19513,
19188,
19179,
19071,
18750,
18462,
18796,
18242,
18335,
18357,
18269,
18021,
18067,
18014,
17678,
17641,
17604,
17389,
17575,
17597,
18036,
17827,
17262,
17064,
16905,
16384,
16418,
16349,
15924,
16074,
15994,
15629,
15825,
15500,
15465,
15554,
15594,
15289,
15357,
15436,
15201,
15084,
14773,
14771,
14576,
14486,
14599,
14309,
14231,
14195,
14298,
14903,
15320,
15477,
15399,
15133,
14054,
13770,
13360,
13309,
13237,
13008,
12768,
12851,
12790,
12847,
12821,
12508,
12487,
12384,
12412,
12494,
12291,
12243,
12059,
12327,
12125,
12083,
11787,
11879,
11584,
11589,
11533,
11214,
11296,
11104,
11169,
11293,
11146,
11243,
11102,
10812,
10844,
10678,
10742,
10518,
10491,
10304,
10311,
10189,
10161,
10143,
10237,
10113,
9978,
9924,
9857,
9927,
9637,
9763,
9604,
9739,
9466,
9433,
9461,
9133,
9215,
9163,
9203,
9030,
8999,
8990,
8972,
8908,
8686,
8624,
8483,
8772,
8549,
8518,
8481,
8445,
8390,
8314,
8202,
8294,
8267,
7989,
8068,
7957,
7882,
7752,
7851,
7738,
7806,
7882,
7713,
7642,
7536,
7611,
7383,
7418,
7286,
7298,
7326,
7134,
7431,
7271,
7159,
7001,
7016,
6900,
6766,
6709,
6850,
6647,
6910,
6614,
6588,
6649,
6577,
6475,
6496,
6433,
6246,
6242,
6263,
6297,
6152,
6052,
5980,
6151,
5951,
5918,
5869,
6004,
5922,
5992,
5912,
5897,
5964,
5934,
6074,
5773,
5708,
5610,
5557,
5449,
5420,
5376,
5171,
5348,
5145,
5168,
5191,
5076,
5219,
5090,
5082,
4867,
4918,
4878,
4946,
4943,
4926,
4839,
4697,
4649,
4724,
4526,
4553,
4502,
4606,
4417,
4371,
4531,
4459,
4483,
4381,
4322,
4312,
4114,
4177,
4052,
4069,
4059,
3996,
4009,
3996,
3946,
3887,
3847,
3885,
3780,
3782,
3716,
3695,
3704,
3790,
3588,
3663,
3566,
3650,
3591,
3504,
3449,
3421,
3527,
3464,
3450,
3513,
3410,
3344,
3373,
3258,
3228,
3194,
3137,
3132,
2951,
3073,
2977,
2967,
2996,
2851,
2951,
2840,
2906,
2748,
2789,
2808,
2711,
2754,
2712,
2647,
2673,
2583,
2641,
2574,
2609,
2602,
2598,
2501,
2544,
2553,
2472,
2338,
2406,
2524,
2387,
2369,
2451,
2474,
2596,
3135,
4101,
5786,
8067,
11168,
14708,
17587,
19118,
18641,
16699,
13458,
9789,
6738,
4572,
3267,
2464,
2096,
1898,
1863,
1809,
1757,
1799,
1704,
1646,
1671,
1660,
1646,
1723,
1623,
1615,
1704,
1589,
1525,
1481,
1487,
1524,
1540,
1470,
1409,
1447,
1469,
1475,
1386,
1408,
1338,
1322,
1369,
1338,
1324,
1275,
1261,
1271,
1275,
1194,
1249,
1238,
1280,
1389,
1486,
1741,
2146,
2698,
3014,
3389,
3347,
3078,
2673,
2273,
1904,
1601,
1476,
1302,
1293,
1196,
1155,
1025,
910,
924,
851,
835,
819,
775,
764,
775,
765,
763,
766,
708,
748,
697,
649,
720,
641,
691,
660,
646,
655,
615,
598,
563,
600,
608,
552,
549,
554,
529,
552,
563,
504,
524,
524,
491,
483,
482,
467,
461,
450,
506,
449,
485,
434,
403,
386,
407,
394,
371,
393,
385,
344,
383,
347,
369,
324,
370,
318,
298,
314,
276,
281,
291,
259,
282,
278,
291,
236,
223,
272,
221,
234,
207,
189,
217,
195,
207,
199,
184,
188,
187,
173,
171,
168,
158,
170,
146,
150,
147,
145,
147,
114,
125,
114,
123,
92,
106,
99,
96,
102,
89,
78,
74,
79,
79,
74,
60,
57,
46,
66,
52,
47,
28,
33,
24,
29,
25,
17,
20,
12,
13,
7,
9,
2,
6,
8,
1,
0,
5,
3,
5,
3,
4,
3,
5,
4,
1,
4,
3,
2,
1,
3,
4,
0,
3,
1,
7,
2,
2,
4,
3,
3,
3,
1,
1,
2,
0,
2,
1,
4,
3,
1,
2,
3,
1,
1,
1,
0,
3,
0,
0,
0,
3,
1,
0,
2,
4,
1,
1,
2,
0,
1,
0,
2,
1,
1,
1,
1,
1,
1,
1,
1,
4,
1,
0,
2,
0,
0,
1,
2,
1,
0,
0,
0,
0,
1,
1,
1,
2,
2,
0,
0,
2,
2,
0,
0,
0,
3,
1,
3,
1,
0,
1,
0,
0,
0,
0,
1,
2,
1,
0,
0,
0,
1,
3,
1,
1,
0,
0,
0,
2,
1,
0,
1,
0,
1,
2,
1,
0,
1,
1,
0,
1,
0,
2,
0,
0,
0,
1,
0,
1,
1,
0,
0,
0,
0,
0,
1,
1,
0,
1,
1,
0,
0,
2,
0,
3,
1,
0,
0,
0,
0,
2,
1,
1,
0,
0,
0,
2,
0,
0,
0,
1,
0,
0,
0,
1,
0,
0,
0,
0,
0,
0,
1,
0,
0,
0,
0,
0,
0,
0,
0,
0,
0,
0,
0,
0,
0,
1,
0,
0,
0,
0,
0,
0,
0,
0,
0,
0,
0,
0,
0,
1,
0,
0,
1,
0,
0,
0,
0,
0,
0,
0,
0,
0,
1,
0,
0,
0,
0,
0,
0,
0,
0,
0,
0,
1,
0,
0,
0,
0,
0,
0,
0,
0,
1,
0,
0,
0,
1,
0,
0,
0,
0,
0,
0,
0,
0,
0,
0,
0,
0,
1,
2,
0,
0,
0,
0,
0,
1,
0,
0,
0,
0,
0,
0,
0,
0,
0,
0,
1,
2,
0,
0,
0,
0,
0,
0,
1,
0,
0,
0,
0,
0,
0,
0,
1,
0,
0,
0,
0,
0,
0,
0,
0,
0,
0,
0,
0,
0,
0,
0,
0,
0,
0,
0,
0,
0,
0,
0,
0,
0,
0,
0,
0,
0,
0,
0,
0,
0,
1,
0,
0,
0,
0,
0,
0,
0,
0,
0,
1,
0,
0,
0,
0,
0,
0,
0,
0,
0,
0,
0,
0,
0,
0,
0,
0,
0,
0,
0,
0,
0,
0,
0,
0,
0,
0,
0,
0,
0,
0,
0,
0,
0,
0,
0,
0,
0,
0,
0,
0,
0,
0,
0,
0,
0,
0,
0,
0,
0,
0,
0,
0,
0,
0,
0,
0,
0,
0,
0,
0,
0,
0,
0,
0,
0,
0,
0,
0,
0,
0,
0,
0,
0,
0,
0,
0,
0,
0,
0,
0,
0,
0,
0,
0,
0,
0,
0,
0,
0,
0,
0,
0,
0,
0,
0,
1,
0,
0,
0,
0,
0,
0,
0,
0,
0,
0,
0,
0,
0,
0,
0,
0,
0,
0,
0,
0,
0,
0,
0,
0,
0,
0,
1,
0,
0,
0,
0,
0,
0,
0,
0,
0,
0,
0,
0,
0,
0,
0,
0,
0,
0,
0,
0,
0,
0,
0,
0,
0,
0,
0,
0,
0,
0,
0,
0,
0,
0,
0,
0,
0,
0,
0,
0,
0,
0,
0,
0,
0,
0,
0,
0,
0,
0,
0,
0,
0,
0,
0,
0,
0,
0,
0,
0,
0,
0,
0,
0,
0,
0,
0,
0,
0,
0,
0,
0,
0,
0,
0,
0,
0,
0,
0,
0,
0,
0,
0,
0,
0,
0,
0,
0,
0,
0,
0,
0,
0,
0,
0,
0,
0,
0,
0,
0,
0,
0,
0,
0,
0,
0,
0,
0,
0,
0,
0,
0,
0,
0,
0,
0,
0,
0,
0,
0,
0,
0,
0,
0,
0,
0,
0,
0,
0,
0,
0,
0,
0,
0,
0,
0,
0,
0,
0,
0,
0,
0,
0,
0,
0,
0,
0,
0,
0,
0,
0,
0,
0,
0,
0,
0,
0,
0,
0,
0,
0,
0,
0,
0,
0,
0,
0,
0,
0,
0,
0,
0,
0,
0,
0,
0,
0,
0,
0,
0,
0,
0,
0,
0,
0,
0,
0,
0,
0,
0,
0,
0,
0,
0,
0,
0,
0,
0,
0,
0,
0,
0,
0,
0,
0,
0,
0,
0,
0,
0,
0,
0,
0,
0,
0,
0,
0,
0,
0,
0,
0,
0,
0,
0,
0,
0,
0,
0,
0,
0,
0,
0,
0,
0,
0,
0,
0,
0,
0,
0,
0,
#ENDOFDATA   :