File: NeXLSpectrum/Zepellin/Standards/Zn std.msa
#FORMAT      : EMSA/MAS Spectral Data File
#VERSION     : 1.0
#TITLE       : Zn std
#DATE        : 11-OCT-2018
#TIME        : 02:24
#OWNER       : Unknown
#NPOINTS     : 4096
#NCOLUMNS    : 1
#XUNITS      : eV
#YUNITS      : counts
#DATATYPE    : Y
#XPERCHAN    : 9.99856
#OFFSET      : 1.63032
#BEAMKV      : 20
#SIGNALTYPE  : EDS
#ELEVANGLE   : 35
#AZIMANGLE   : 0
#LIVETIME    : 1157.03
#REALTIME    : 1650.23
#PROBECUR    : 0.97292
#TDEADLYR    : 0
#TACTLYR     : 0.045
#TALWIND     : 0.003
#CHOFFSET    : 0.0
#XLABEL      : Energy (eV)
#YLABEL      : Counts
#EDSDET      : SDUTW
##SPECIMEN   : Zn std
##D2STDCMP   : Zn,(Zn:100.0),5.0
##DET_HASH   : 97086dfe-e5c2-9c77-3984-1d0b14bbbf41
##CALIB_HASH : 1a36e884-c26d-3547-51b1-d0bb2efdf95a
##WORKING    : 17.0 mm
##SAMPLE     : <BulkSample id="1">\n<mOrientation id="2">\n<double>0.0</double>\n<double>0.0</double>\n<double>-1.0</double>\n</mOrientation>\n</BulkSample>
#SPECTRUM    :
189979,
41198,
3149,
547,
198,
210,
805,
3348,
15424,
29294,
17889,
10192,
11464,
13249,
15252,
19249,
27498,
38716,
35436,
28401,
30589,
34897,
39719,
45387,
50097,
55930,
63687,
83911,
159951,
296718,
322001,
313804,
978628,
2928572,
3728957,
1910324,
452816,
86279,
32216,
20904,
17464,
16949,
17200,
17576,
17899,
18460,
19255,
19673,
21180,
22634,
23288,
22858,
22259,
22664,
22976,
23367,
24763,
26831,
27809,
28142,
28440,
28167,
28185,
28682,
29351,
30609,
34341,
40072,
41248,
36298,
31681,
29939,
29732,
30026,
29971,
30229,
30446,
31228,
30666,
30710,
31231,
31417,
31659,
31093,
31599,
31881,
31932,
32677,
32267,
32206,
31909,
31733,
31557,
31966,
31622,
32093,
31798,
31578,
31968,
31752,
31609,
31759,
31462,
31202,
31193,
31149,
30708,
31136,
31135,
30761,
30526,
30409,
30438,
30184,
30317,
29827,
29732,
29509,
29788,
29395,
29075,
29040,
28895,
28780,
28769,
28620,
27959,
28241,
27611,
27681,
27419,
27347,
27272,
26923,
26666,
26926,
26662,
26281,
26357,
25790,
25866,
25562,
25450,
25310,
25510,
24998,
24954,
24779,
24878,
24540,
24619,
24219,
24112,
23717,
23487,
23608,
23372,
23292,
22845,
22726,
22656,
22696,
22159,
22279,
21909,
21796,
21565,
21571,
21495,
21108,
21010,
21018,
20789,
20690,
20751,
20598,
20669,
20414,
20375,
20441,
20721,
20711,
20124,
19484,
19238,
18996,
18793,
19028,
18784,
18716,
18306,
18324,
18047,
18370,
17986,
18137,
17834,
17848,
17496,
17501,
17603,
17056,
16859,
16825,
16629,
16785,
16648,
16482,
16616,
16528,
16721,
16998,
17638,
17935,
17794,
17306,
16452,
15870,
15655,
15415,
15072,
15244,
14919,
14837,
14668,
14930,
14797,
14924,
14991,
15113,
15081,
14858,
14670,
14467,
14301,
14312,
14025,
13991,
13628,
13591,
13495,
13523,
13139,
13069,
12846,
13044,
13291,
13102,
13155,
13088,
13169,
12823,
12532,
12395,
12335,
12203,
12172,
12427,
11827,
11983,
11870,
11872,
11613,
11678,
11760,
11644,
11588,
11492,
11284,
11521,
11587,
11433,
11498,
11516,
11445,
11656,
11906,
11704,
12060,
12735,
13895,
18212,
31956,
66730,
141389,
259046,
402006,
513840,
537282,
458999,
321255,
186280,
92481,
41934,
20261,
12817,
10542,
9722,
9625,
9432,
9426,
9250,
9352,
9193,
9269,
9194,
9048,
9379,
9418,
9498,
9582,
9950,
10505,
12502,
16385,
24849,
39056,
56555,
72792,
79566,
74746,
59363,
41664,
26600,
16387,
11020,
8174,
6948,
6684,
6364,
6327,
6408,
6302,
6322,
6299,
6205,
6229,
6254,
6217,
6169,
6169,
6073,
5943,
6053,
5875,
6133,
5867,
5967,
6060,
6075,
6218,
6315,
6413,
6425,
6255,
5946,
5781,
5620,
5538,
5389,
5552,
5318,
5295,
5468,
5315,
5260,
5098,
5208,
5166,
5095,
5203,
5095,
5078,
4960,
5100,
4865,
4972,
4784,
4927,
4800,
4808,
4721,
4683,
4598,
4646,
4765,
4644,
4539,
4591,
4419,
4431,
4504,
4400,
4299,
4445,
4306,
4276,
4127,
4108,
4226,
4166,
4108,
4119,
4180,
4122,
3900,
3923,
3955,
3874,
3875,
3829,
3794,
3770,
3833,
3772,
3688,
3664,
3733,
3725,
3591,
3695,
3669,
3615,
3551,
3498,
3423,
3373,
3508,
3425,
3236,
3330,
3199,
3211,
3168,
3173,
3130,
3148,
3070,
3141,
2989,
3040,
2943,
2923,
2843,
2840,
2761,
2790,
2885,
2813,
2737,
2676,
2698,
2629,
2654,
2623,
2654,
2584,
2524,
2456,
2506,
2481,
2363,
2444,
2467,
2329,
2453,
2439,
2340,
2215,
2266,
2329,
2234,
2188,
2170,
2239,
2151,
2119,
2046,
2077,
2199,
2032,
2090,
2102,
1978,
1962,
1986,
1848,
1968,
1933,
1866,
1832,
1850,
1813,
1780,
1739,
1706,
1674,
1680,
1688,
1620,
1666,
1602,
1611,
1607,
1630,
1524,
1569,
1528,
1496,
1476,
1497,
1553,
1459,
1374,
1395,
1357,
1314,
1419,
1340,
1278,
1356,
1331,
1315,
1248,
1329,
1272,
1256,
1211,
1237,
1160,
1177,
1113,
1171,
1120,
1042,
1101,
1042,
1065,
1059,
1026,
993,
981,
969,
975,
948,
948,
1021,
933,
871,
868,
872,
848,
865,
845,
859,
813,
837,
826,
768,
747,
776,
752,
732,
766,
717,
695,
748,
679,
710,
680,
683,
730,
696,
726,
735,
770,
742,
713,
722,
622,
636,
581,
579,
522,
550,
497,
528,
501,
518,
490,
474,
460,
447,
404,
409,
440,
408,
440,
399,
362,
385,
373,
395,
360,
392,
320,
383,
381,
394,
344,
336,
330,
301,
298,
265,
255,
274,
260,
246,
262,
245,
231,
252,
233,
213,
219,
190,
201,
181,
162,
183,
194,
150,
154,
145,
142,
136,
129,
109,
134,
111,
125,
129,
118,
105,
102,
107,
101,
109,
95,
111,
91,
70,
63,
61,
70,
33,
42,
52,
29,
37,
36,
25,
39,
25,
20,
15,
10,
17,
10,
15,
7,
11,
10,
5,
10,
4,
5,
3,
5,
9,
5,
4,
10,
4,
3,
6,
4,
9,
5,
5,
3,
8,
2,
3,
3,
5,
2,
5,
7,
6,
1,
6,
4,
7,
3,
4,
4,
4,
2,
4,
2,
3,
4,
3,
3,
3,
5,
2,
3,
2,
6,
2,
4,
5,
4,
3,
4,
5,
3,
5,
5,
2,
5,
7,
4,
3,
7,
1,
4,
4,
7,
3,
4,
4,
1,
1,
0,
5,
2,
3,
3,
3,
3,
5,
4,
1,
3,
3,
4,
1,
1,
2,
7,
4,
2,
2,
1,
2,
1,
1,
1,
3,
1,
3,
2,
4,
1,
1,
2,
2,
2,
2,
1,
2,
0,
0,
1,
1,
1,
1,
1,
1,
2,
2,
1,
3,
0,
0,
2,
2,
3,
3,
0,
2,
3,
0,
0,
1,
2,
1,
1,
1,
2,
1,
2,
1,
0,
2,
1,
0,
1,
1,
1,
1,
0,
1,
3,
3,
2,
1,
1,
0,
0,
0,
2,
1,
0,
2,
0,
1,
1,
1,
1,
0,
1,
2,
1,
0,
0,
2,
0,
1,
0,
0,
0,
0,
0,
1,
0,
1,
0,
0,
0,
0,
1,
1,
1,
0,
0,
1,
1,
0,
0,
0,
1,
1,
0,
1,
1,
0,
0,
0,
0,
0,
0,
1,
1,
0,
0,
1,
0,
0,
0,
1,
0,
0,
1,
0,
0,
0,
0,
0,
0,
0,
0,
1,
0,
0,
0,
0,
0,
0,
0,
0,
0,
0,
1,
0,
0,
0,
0,
0,
0,
0,
0,
0,
0,
0,
0,
0,
2,
0,
0,
1,
1,
0,
0,
0,
0,
0,
0,
0,
0,
0,
0,
1,
0,
0,
0,
0,
0,
0,
0,
0,
0,
0,
0,
0,
0,
0,
0,
0,
1,
0,
0,
0,
0,
0,
0,
0,
0,
0,
0,
0,
0,
0,
0,
0,
0,
0,
0,
0,
0,
0,
0,
1,
0,
0,
0,
0,
0,
0,
0,
0,
0,
0,
1,
0,
0,
0,
0,
0,
0,
0,
0,
0,
0,
0,
0,
0,
0,
0,
0,
0,
0,
1,
0,
0,
0,
0,
0,
0,
0,
0,
0,
0,
0,
1,
0,
0,
0,
0,
0,
0,
0,
0,
0,
0,
0,
0,
0,
0,
0,
0,
0,
0,
0,
0,
0,
0,
0,
0,
0,
0,
0,
0,
0,
0,
0,
0,
0,
0,
0,
0,
0,
0,
0,
0,
0,
0,
0,
0,
0,
0,
0,
0,
0,
0,
0,
0,
0,
0,
0,
0,
0,
0,
0,
0,
0,
0,
0,
0,
0,
0,
0,
0,
0,
0,
0,
0,
0,
0,
0,
0,
0,
0,
0,
0,
0,
0,
0,
0,
0,
0,
0,
0,
0,
0,
0,
0,
0,
0,
0,
0,
0,
0,
0,
0,
0,
0,
0,
0,
0,
0,
0,
0,
0,
0,
0,
0,
0,
0,
0,
0,
0,
0,
0,
0,
0,
0,
0,
0,
0,
0,
0,
0,
0,
0,
0,
0,
0,
0,
0,
0,
0,
0,
0,
0,
0,
0,
0,
0,
0,
0,
0,
0,
0,
0,
0,
0,
0,
0,
0,
0,
0,
0,
0,
0,
0,
0,
0,
0,
0,
0,
0,
0,
0,
0,
0,
0,
0,
0,
0,
0,
0,
0,
0,
0,
0,
0,
0,
0,
0,
0,
0,
0,
0,
0,
0,
0,
0,
0,
0,
0,
0,
0,
0,
0,
0,
0,
0,
0,
0,
0,
0,
0,
0,
0,
0,
0,
0,
0,
0,
0,
0,
0,
0,
0,
0,
0,
0,
0,
0,
0,
0,
0,
0,
0,
0,
0,
0,
0,
0,
0,
0,
0,
0,
0,
0,
0,
0,
0,
0,
0,
0,
0,
0,
0,
0,
0,
0,
0,
0,
0,
0,
0,
0,
0,
0,
0,
0,
0,
0,
0,
0,
0,
0,
0,
0,
0,
0,
0,
0,
0,
0,
0,
0,
0,
0,
0,
0,
0,
0,
0,
0,
0,
0,
0,
0,
0,
0,
0,
0,
0,
0,
0,
0,
0,
0,
0,
0,
0,
0,
0,
0,
0,
0,
0,
0,
0,
0,
0,
0,
0,
0,
0,
0,
0,
0,
0,
0,
0,
0,
0,
0,
0,
0,
0,
0,
0,
0,
0,
0,
0,
0,
#ENDOFDATA   :