File: NeXLSpectrum/Zepellin/Standards/Zr std.msa
#FORMAT      : EMSA/MAS Spectral Data File
#VERSION     : 1.0
#TITLE       : Zr std
#DATE        : 15-OCT-2018
#TIME        : 10:20
#OWNER       : Unknown
#NPOINTS     : 4096
#NCOLUMNS    : 1
#XUNITS      : eV
#YUNITS      : counts
#DATATYPE    : Y
#XPERCHAN    : 9.99856
#OFFSET      : 1.63032
#BEAMKV      : 20
#SIGNALTYPE  : EDS
#ELEVANGLE   : 35
#AZIMANGLE   : 0
#LIVETIME    : 1156.32
#REALTIME    : 1641.54
#PROBECUR    : 0.98709
#TDEADLYR    : 0
#TACTLYR     : 0.045
#TALWIND     : 0.003
#CHOFFSET    : 0.0
#XLABEL      : Energy (eV)
#YLABEL      : Counts
#EDSDET      : SDUTW
##SPECIMEN   : Zr std
##D2STDCMP   : Zr,(Zr:100.0),8.0
##DET_HASH   : 97086dfe-e5c2-9c77-3984-1d0b14bbbf41
##CALIB_HASH : 1a36e884-c26d-3547-51b1-d0bb2efdf95a
##WORKING    : 17.0 mm
##SAMPLE     : <BulkSample id="1">\n<mOrientation id="2">\n<double>0.0</double>\n<double>0.0</double>\n<double>-1.0</double>\n</mOrientation>\n</BulkSample>
#SPECTRUM    :
144760,
29244,
2512,
618,
827,
2175,
2974,
4600,
13924,
45430,
69221,
39820,
31709,
34300,
21532,
19526,
26338,
38546,
32610,
20377,
18521,
20017,
22421,
25301,
26550,
27823,
29661,
31847,
33457,
36031,
38127,
40286,
42034,
44165,
45970,
48215,
49021,
50938,
51935,
53324,
54903,
56260,
57368,
58422,
59703,
60942,
61315,
63228,
65180,
68779,
69721,
67457,
64642,
64435,
64253,
65341,
67729,
76697,
106439,
157437,
183435,
155553,
127222,
117564,
129370,
242357,
708610,
1763805,
2651591,
2387170,
1737533,
1367815,
934183,
513454,
278412,
144441,
75029,
47045,
35444,
29278,
26544,
26987,
30368,
34759,
34889,
30535,
25869,
24155,
23570,
24098,
24413,
24401,
24472,
25080,
25103,
25410,
25793,
25612,
25768,
26140,
26394,
26482,
26715,
26775,
26858,
26843,
27304,
27304,
27230,
27068,
27625,
27802,
27545,
27615,
27588,
27649,
27445,
27677,
27589,
27821,
28204,
27770,
27773,
27546,
28013,
27810,
27867,
28235,
28273,
28125,
28387,
28088,
28340,
28454,
29433,
31410,
33106,
34419,
33784,
33534,
32180,
30752,
29568,
28328,
27667,
26762,
26289,
26194,
25920,
25983,
25525,
25795,
25451,
25406,
25415,
25391,
25149,
25184,
25087,
24995,
24810,
24584,
24671,
24255,
24565,
24078,
24465,
24158,
23595,
23739,
23592,
23687,
23606,
23180,
23097,
23189,
22813,
22910,
23217,
23420,
23512,
23496,
23190,
22517,
22111,
21925,
21847,
21703,
21770,
21498,
21334,
21311,
21283,
20945,
20833,
20587,
20905,
21163,
20593,
20652,
20556,
20326,
19894,
19866,
19679,
19802,
19422,
19552,
19375,
19221,
19630,
20224,
20813,
21125,
20789,
20161,
19548,
18750,
18481,
18357,
18337,
18021,
17600,
17551,
17719,
17559,
17437,
17565,
17371,
17293,
17199,
17093,
16683,
16961,
17068,
17044,
16898,
16694,
16293,
16308,
16141,
15987,
16368,
16089,
15811,
15749,
15524,
15501,
15813,
15755,
15563,
15575,
15171,
14999,
14932,
14775,
14800,
14617,
14701,
14635,
14260,
14227,
14094,
13958,
14113,
13983,
14040,
13780,
13773,
13653,
13882,
13741,
13315,
13179,
13324,
13192,
13089,
13216,
13153,
12943,
13035,
12673,
12696,
12556,
12567,
12326,
12800,
12394,
12235,
12145,
12153,
12232,
12025,
12080,
11719,
11853,
11654,
11735,
11536,
11537,
11248,
11465,
11347,
11143,
11309,
11107,
10942,
10990,
10984,
10959,
10730,
10658,
10654,
10782,
10510,
10316,
10325,
10359,
10127,
10263,
10193,
10199,
10032,
9955,
9866,
9850,
9747,
9639,
9763,
9682,
9488,
9436,
9289,
9301,
9260,
9262,
9306,
9001,
9133,
9031,
8660,
8934,
8882,
8912,
8755,
8774,
8545,
8516,
8612,
8609,
8743,
8731,
8581,
8404,
8280,
8299,
8067,
8051,
7934,
7879,
7873,
7749,
7696,
7550,
7476,
7620,
7457,
7608,
7573,
7267,
7339,
7267,
7176,
7115,
7216,
7035,
7023,
6936,
6943,
6906,
6758,
6735,
6725,
6719,
6569,
6601,
6544,
6518,
6370,
6358,
6338,
6323,
6154,
6209,
6170,
6075,
6041,
6087,
6043,
5901,
5821,
5733,
6046,
5752,
5654,
5583,
5612,
5608,
5619,
5560,
5550,
5255,
5355,
5304,
5326,
5182,
5213,
5310,
5313,
5269,
5263,
5206,
5113,
5114,
5053,
4771,
4684,
4795,
4772,
4561,
4566,
4604,
4560,
4413,
4478,
4486,
4289,
4354,
4230,
4215,
4292,
4219,
4174,
4061,
4128,
4008,
3947,
3869,
3951,
3888,
3781,
3744,
3892,
3707,
3669,
3800,
3602,
3664,
3534,
3513,
3462,
3501,
3382,
3286,
3343,
3438,
3297,
3294,
3264,
3185,
3273,
3230,
3171,
3083,
3011,
3029,
2982,
2972,
3075,
2826,
2914,
2800,
2822,
2760,
2828,
2723,
2763,
2687,
2655,
2644,
2657,
2512,
2606,
2689,
2554,
2371,
2489,
2479,
2376,
2396,
2341,
2337,
2297,
2260,
2213,
2249,
2217,
2257,
2265,
2126,
2183,
2107,
2063,
2046,
2026,
2087,
2138,
2319,
2670,
3173,
4001,
5003,
6114,
6992,
7541,
7753,
7352,
6499,
5454,
4180,
3382,
2516,
2055,
1727,
1617,
1540,
1601,
1546,
1532,
1445,
1500,
1435,
1389,
1420,
1428,
1342,
1351,
1296,
1364,
1264,
1222,
1279,
1230,
1161,
1164,
1149,
1224,
1178,
1163,
1106,
1077,
1132,
1053,
1003,
1091,
1006,
1014,
1012,
961,
1017,
947,
978,
893,
860,
851,
819,
897,
825,
847,
875,
819,
828,
877,
912,
1053,
1177,
1278,
1404,
1466,
1532,
1393,
1323,
1105,
967,
816,
754,
711,
714,
673,
705,
615,
577,
548,
563,
543,
449,
492,
466,
467,
424,
431,
423,
447,
398,
383,
400,
381,
355,
379,
301,
364,
321,
320,
334,
303,
276,
295,
265,
251,
282,
242,
269,
246,
246,
258,
246,
217,
192,
209,
214,
221,
172,
167,
176,
161,
159,
150,
113,
124,
119,
112,
124,
99,
108,
96,
85,
85,
88,
77,
71,
60,
55,
42,
39,
40,
32,
28,
29,
14,
14,
12,
11,
10,
10,
8,
7,
6,
4,
4,
9,
2,
7,
7,
4,
4,
3,
3,
7,
8,
5,
3,
8,
5,
8,
3,
7,
4,
2,
6,
4,
4,
4,
4,
6,
3,
3,
4,
4,
6,
1,
3,
3,
5,
2,
7,
2,
2,
2,
1,
4,
3,
3,
3,
4,
1,
3,
4,
1,
1,
6,
3,
1,
0,
4,
4,
3,
6,
3,
2,
2,
0,
2,
2,
1,
2,
3,
2,
2,
1,
3,
5,
1,
0,
3,
2,
3,
2,
2,
0,
2,
1,
1,
1,
0,
2,
3,
1,
0,
1,
1,
0,
1,
2,
0,
1,
4,
0,
0,
0,
1,
0,
2,
0,
0,
3,
2,
1,
1,
0,
3,
1,
0,
1,
1,
1,
0,
0,
1,
2,
0,
1,
0,
0,
0,
1,
2,
1,
0,
1,
0,
2,
0,
1,
2,
0,
2,
1,
4,
1,
0,
2,
0,
1,
0,
0,
1,
1,
0,
1,
1,
1,
0,
1,
0,
2,
0,
0,
3,
0,
2,
2,
0,
1,
0,
0,
1,
0,
0,
1,
0,
0,
0,
0,
2,
1,
0,
0,
0,
0,
0,
1,
1,
0,
0,
0,
0,
0,
0,
1,
0,
0,
0,
1,
0,
0,
0,
0,
0,
0,
0,
0,
1,
2,
0,
0,
0,
0,
0,
0,
0,
1,
1,
0,
0,
0,
0,
0,
0,
0,
2,
0,
0,
1,
0,
0,
0,
1,
0,
2,
0,
0,
0,
0,
0,
0,
0,
1,
1,
0,
0,
0,
0,
0,
0,
1,
0,
1,
0,
0,
1,
1,
0,
0,
0,
1,
0,
0,
0,
0,
1,
0,
0,
0,
0,
0,
0,
0,
0,
0,
0,
1,
1,
0,
0,
0,
0,
0,
0,
0,
0,
0,
0,
0,
0,
0,
0,
0,
0,
0,
1,
0,
0,
0,
0,
0,
1,
0,
0,
0,
0,
0,
1,
0,
0,
0,
0,
0,
0,
0,
0,
0,
0,
1,
0,
0,
0,
0,
0,
0,
0,
0,
0,
0,
0,
0,
0,
0,
0,
0,
0,
0,
0,
0,
0,
0,
0,
0,
0,
0,
0,
0,
0,
0,
0,
0,
0,
0,
0,
0,
1,
0,
0,
0,
0,
0,
1,
0,
0,
0,
0,
0,
0,
0,
0,
0,
0,
0,
0,
0,
0,
0,
0,
0,
0,
0,
0,
1,
0,
0,
0,
0,
0,
0,
0,
0,
0,
0,
0,
0,
0,
0,
0,
0,
0,
0,
0,
0,
0,
0,
0,
0,
0,
0,
0,
0,
0,
0,
0,
0,
0,
0,
0,
0,
0,
0,
0,
0,
0,
0,
0,
0,
0,
0,
0,
0,
0,
0,
0,
0,
0,
0,
0,
0,
0,
0,
0,
0,
0,
0,
0,
0,
0,
0,
0,
0,
0,
0,
0,
0,
0,
0,
0,
0,
0,
0,
0,
0,
0,
0,
0,
0,
0,
0,
0,
0,
0,
0,
0,
0,
0,
0,
0,
0,
0,
0,
0,
0,
0,
0,
0,
0,
0,
0,
0,
0,
0,
0,
0,
0,
0,
0,
0,
0,
0,
0,
0,
0,
0,
0,
0,
0,
0,
0,
0,
0,
0,
0,
0,
0,
0,
0,
0,
0,
0,
0,
0,
0,
0,
0,
0,
0,
0,
0,
0,
0,
0,
0,
0,
0,
0,
0,
0,
0,
0,
0,
0,
0,
0,
0,
0,
0,
0,
0,
0,
0,
0,
0,
0,
0,
0,
0,
0,
0,
0,
0,
0,
0,
0,
0,
0,
0,
0,
0,
0,
0,
0,
0,
0,
0,
0,
0,
0,
0,
0,
0,
0,
0,
0,
0,
0,
0,
0,
0,
0,
0,
0,
0,
0,
0,
0,
0,
0,
0,
0,
0,
0,
0,
0,
0,
0,
0,
0,
0,
0,
0,
0,
0,
0,
0,
0,
0,
0,
0,
0,
0,
0,
0,
0,
0,
0,
0,
0,
0,
0,
0,
0,
0,
0,
0,
0,
0,
0,
0,
0,
0,
0,
0,
0,
0,
0,
0,
0,
0,
0,
0,
0,
0,
0,
0,
0,
0,
0,
0,
0,
0,
0,
0,
0,
0,
0,
0,
0,
0,
0,
0,
0,
0,
0,
0,
0,
0,
0,
0,
0,
0,
0,
0,
0,
0,
0,
0,
0,
0,
0,
0,
0,
#ENDOFDATA   :