File: NeXLSpectrum/HyperSpectra/PTX/Cu std.msa
#FORMAT      : EMSA/MAS Spectral Data File
#VERSION     : 1.0
#TITLE       : Cu std
#DATE        : 15-MAY-2018
#TIME        : 11:57
#OWNER       : Unknown
#NPOINTS     : 4096
#NCOLUMNS    : 1
#XUNITS      : eV
#YUNITS      : counts
#DATATYPE    : Y
#XPERCHAN    : 9.99856
#OFFSET      : 1.63032
#BEAMKV      : 25
#SIGNALTYPE  : EDS
#ELEVANGLE   : 35
#AZIMANGLE   : 0
#LIVETIME    : 1171.08
#REALTIME    : 1665.23
#PROBECUR    : 0.94575
#TDEADLYR    : 0
#TACTLYR     : 0.045
#TALWIND     : 0.003
#CHOFFSET    : 0.0
#XLABEL      : Energy (eV)
#YLABEL      : Counts
#EDSDET      : SDUTW
##SPECIMEN   : Cu std
##D2STDCMP   : Cu,(Cu:100.0),8.9
##DET_HASH   : 97086dfe-e5c2-9c77-3984-1d0b14bbbf41
##CALIB_HASH : 1a36e884-c26d-3547-51b1-d0bb2efdf95a
##WORKING    : 16.99 mm
##SAMPLE     : <BulkSample id="1">\n<mOrientation id="2">\n<double>0.0</double>\n<double>0.0</double>\n<double>-1.0</double>\n</mOrientation>\n</BulkSample>
#SPECTRUM    :
26,
44,
20,
11,
32,
176,
715,
3375,
16263,
31751,
19101,
10376,
12073,
14359,
14373,
17143,
26097,
40154,
36082,
26841,
27259,
31767,
37420,
44290,
54644,
89000,
199201,
307460,
285123,
546719,
1778374,
2714313,
1593609,
402603,
73579,
25030,
15278,
13189,
13195,
13612,
14361,
14693,
15215,
16053,
16512,
17453,
18207,
19571,
21029,
23334,
24163,
22779,
21572,
21170,
21802,
22343,
23751,
26605,
28009,
28479,
28790,
31138,
32428,
30337,
27437,
26153,
26553,
27123,
27423,
28103,
28473,
29019,
29610,
29536,
30477,
31288,
32923,
33919,
33744,
32661,
32611,
32831,
33014,
33225,
33293,
33759,
33989,
35059,
34665,
34571,
34636,
34542,
34554,
34404,
34898,
35020,
35233,
34978,
35098,
35624,
35631,
35358,
35088,
34959,
35331,
35305,
35081,
35002,
34932,
35199,
34679,
34748,
35227,
35204,
34692,
34614,
34730,
34464,
34663,
34315,
34178,
33910,
33894,
34089,
34029,
33537,
33542,
33645,
32986,
33236,
32872,
32712,
32655,
32676,
32148,
32249,
32014,
32200,
31865,
31562,
31402,
31314,
31340,
30831,
30390,
30693,
30567,
30363,
29994,
29882,
30034,
29859,
29517,
29281,
29207,
29097,
28775,
28608,
28714,
28471,
28494,
28130,
28175,
28011,
27611,
27712,
27113,
27178,
27036,
26560,
26485,
26885,
26462,
26274,
26180,
25854,
25876,
25941,
25870,
26422,
26503,
26729,
25815,
25869,
24935,
24655,
24350,
24184,
23941,
23879,
23848,
23786,
23535,
23581,
23308,
23342,
23186,
23143,
23296,
22685,
22473,
22766,
22384,
22345,
22449,
22317,
22457,
22510,
23211,
24029,
24673,
24977,
25636,
25509,
24960,
23522,
22303,
21296,
20711,
20635,
20003,
20275,
20109,
19910,
19722,
19890,
19601,
19576,
19248,
19254,
19142,
19326,
19272,
19454,
19414,
19029,
18877,
18886,
18703,
18436,
18318,
18290,
18042,
18141,
17908,
17746,
17710,
18197,
18251,
18333,
18468,
18058,
18078,
17864,
17880,
17943,
18326,
18596,
19054,
19782,
21624,
26569,
43741,
93795,
215821,
444828,
763438,
1067110,
1201468,
1090382,
798748,
476709,
235681,
101121,
43438,
23509,
17672,
15871,
15538,
14973,
14901,
14757,
14822,
14830,
14708,
15024,
15220,
15515,
15826,
16728,
18241,
22611,
32358,
52670,
85971,
126767,
160072,
169239,
151178,
113339,
73154,
42823,
24356,
15446,
11543,
10076,
9678,
9538,
9405,
9327,
9329,
9181,
9262,
9217,
9294,
9314,
9274,
9026,
9146,
9197,
9081,
9211,
9306,
9077,
9333,
9502,
9584,
9429,
9673,
9543,
9363,
9059,
8873,
8768,
8636,
8593,
8541,
8561,
8675,
8439,
8363,
8397,
8431,
8160,
8270,
8339,
8364,
8435,
8241,
8541,
8456,
8492,
8667,
8356,
8259,
8095,
7980,
7827,
7740,
7764,
7773,
7689,
7730,
7522,
7526,
7693,
7434,
7453,
7379,
7244,
7228,
7134,
7218,
7241,
7243,
7302,
7145,
6887,
7101,
6841,
6918,
6842,
6591,
7011,
6761,
6653,
6872,
6693,
6402,
6628,
6650,
6508,
6494,
6306,
6444,
6504,
6243,
6339,
6311,
6208,
6194,
6104,
5977,
6053,
6151,
5869,
6088,
5933,
5931,
5902,
5816,
5776,
5885,
5528,
5787,
5836,
5710,
5858,
5834,
5762,
6017,
5844,
5795,
5692,
5538,
5478,
5365,
5351,
5018,
5218,
5137,
5058,
5024,
5094,
4980,
5049,
4824,
4849,
4925,
4818,
4831,
4718,
4686,
4595,
4575,
4601,
4620,
4590,
4566,
4419,
4463,
4499,
4378,
4287,
4332,
4275,
4232,
4290,
4249,
4103,
4181,
4168,
4021,
4083,
4058,
3895,
3991,
3914,
4022,
3897,
3902,
3772,
3629,
3865,
3653,
3737,
3693,
3587,
3624,
3684,
3497,
3655,
3569,
3568,
3501,
3422,
3432,
3367,
3364,
3353,
3346,
3372,
3329,
3286,
3346,
3165,
3081,
3136,
3107,
3134,
2983,
3107,
3045,
2871,
3014,
2976,
2956,
2916,
2873,
2879,
2847,
2753,
2882,
2830,
2681,
2755,
2680,
2678,
2611,
2660,
2686,
2648,
2727,
2684,
2633,
2710,
2484,
2603,
2575,
2438,
2606,
2539,
2658,
2844,
2939,
2975,
3023,
3055,
2994,
2682,
2573,
2358,
2278,
2121,
2138,
2146,
2105,
2090,
1978,
1992,
1990,
1977,
2002,
2015,
1874,
1887,
1957,
1843,
1791,
1914,
1937,
1911,
1993,
1908,
1973,
1968,
1906,
1831,
1874,
1712,
1678,
1683,
1614,
1737,
1600,
1555,
1650,
1572,
1604,
1485,
1488,
1476,
1445,
1470,
1485,
1338,
1432,
1467,
1401,
1363,
1408,
1437,
1324,
1332,
1260,
1326,
1298,
1284,
1267,
1326,
1248,
1257,
1263,
1221,
1205,
1189,
1171,
1106,
1130,
1114,
1058,
1076,
1138,
1076,
1078,
1069,
1078,
1052,
1030,
1015,
1019,
994,
1012,
987,
980,
971,
937,
886,
902,
959,
906,
873,
877,
843,
890,
892,
848,
831,
838,
794,
800,
825,
785,
776,
737,
767,
756,
739,
682,
762,
720,
730,
691,
657,
696,
661,
734,
617,
668,
656,
656,
634,
599,
599,
591,
563,
584,
563,
555,
577,
579,
566,
506,
523,
561,
521,
505,
481,
523,
486,
532,
483,
504,
458,
507,
500,
476,
436,
403,
415,
445,
427,
402,
410,
379,
366,
363,
355,
403,
371,
385,
377,
369,
323,
341,
371,
354,
345,
314,
315,
329,
316,
352,
285,
270,
325,
297,
283,
278,
281,
288,
282,
267,
274,
271,
265,
236,
247,
224,
243,
236,
242,
220,
231,
235,
238,
208,
219,
209,
210,
223,
188,
203,
181,
210,
181,
190,
166,
166,
183,
164,
147,
151,
163,
147,
144,
137,
141,
129,
122,
127,
120,
156,
118,
126,
129,
122,
137,
119,
114,
114,
101,
103,
101,
107,
95,
88,
91,
90,
98,
82,
82,
78,
83,
84,
63,
81,
70,
89,
53,
70,
66,
64,
65,
62,
49,
59,
60,
62,
62,
57,
53,
46,
52,
46,
42,
29,
33,
28,
37,
38,
27,
45,
30,
30,
20,
25,
22,
14,
24,
26,
11,
16,
12,
14,
11,
13,
6,
12,
7,
18,
10,
5,
5,
5,
5,
4,
6,
3,
3,
0,
2,
3,
2,
0,
2,
7,
4,
4,
1,
3,
1,
3,
1,
2,
5,
0,
6,
3,
3,
2,
1,
4,
2,
4,
0,
3,
2,
4,
4,
2,
3,
1,
0,
2,
4,
2,
1,
2,
2,
2,
2,
1,
2,
3,
2,
2,
4,
2,
3,
1,
0,
1,
3,
0,
3,
0,
1,
2,
1,
2,
1,
1,
2,
4,
2,
0,
1,
1,
0,
0,
3,
1,
1,
2,
1,
3,
2,
3,
0,
1,
0,
0,
2,
0,
1,
0,
0,
2,
2,
0,
3,
0,
2,
1,
2,
1,
2,
0,
1,
1,
1,
1,
0,
0,
1,
2,
3,
1,
0,
1,
2,
1,
0,
2,
1,
0,
0,
1,
0,
0,
1,
1,
0,
2,
1,
2,
0,
1,
0,
0,
0,
0,
0,
0,
1,
1,
0,
0,
1,
0,
1,
0,
0,
1,
0,
0,
1,
0,
0,
2,
0,
3,
1,
0,
0,
0,
0,
0,
0,
0,
0,
1,
0,
1,
0,
0,
1,
0,
2,
2,
0,
1,
0,
1,
0,
0,
0,
0,
0,
0,
0,
2,
0,
0,
0,
0,
1,
1,
0,
0,
0,
0,
0,
0,
0,
1,
0,
0,
1,
1,
0,
0,
1,
0,
1,
0,
1,
0,
0,
0,
0,
0,
0,
0,
0,
0,
0,
0,
0,
0,
0,
0,
1,
0,
1,
1,
0,
0,
0,
0,
0,
0,
1,
0,
0,
0,
0,
0,
1,
0,
0,
0,
0,
0,
0,
0,
0,
0,
0,
0,
0,
0,
0,
0,
0,
0,
0,
0,
0,
0,
1,
0,
0,
1,
0,
0,
0,
0,
0,
0,
0,
0,
0,
0,
0,
0,
0,
0,
1,
0,
0,
0,
0,
1,
0,
0,
0,
0,
0,
0,
0,
0,
0,
0,
0,
0,
0,
0,
0,
0,
0,
0,
0,
0,
1,
0,
0,
0,
0,
0,
0,
0,
0,
0,
0,
0,
0,
0,
0,
0,
0,
0,
0,
0,
0,
0,
0,
0,
0,
0,
0,
0,
0,
0,
0,
0,
0,
0,
0,
0,
0,
0,
0,
0,
0,
0,
0,
0,
0,
0,
0,
0,
0,
0,
0,
0,
0,
0,
0,
0,
0,
0,
0,
0,
0,
0,
0,
0,
0,
0,
0,
0,
0,
0,
0,
0,
0,
0,
0,
0,
0,
0,
0,
0,
0,
0,
0,
0,
0,
0,
0,
0,
0,
0,
0,
0,
0,
0,
0,
0,
0,
0,
0,
0,
0,
0,
0,
0,
0,
0,
0,
0,
0,
0,
0,
0,
0,
0,
0,
0,
0,
0,
0,
0,
0,
0,
0,
0,
0,
0,
0,
0,
0,
0,
0,
0,
0,
0,
0,
0,
0,
0,
0,
0,
0,
0,
0,
0,
0,
0,
0,
0,
0,
0,
0,
0,
0,
0,
0,
0,
0,
0,
0,
0,
0,
0,
0,
0,
0,
0,
0,
0,
0,
0,
0,
0,
0,
0,
0,
0,
0,
0,
0,
0,
0,
0,
0,
0,
0,
0,
0,
0,
0,
0,
0,
0,
0,
0,
0,
0,
0,
0,
0,
0,
0,
0,
0,
0,
0,
0,
0,
0,
0,
0,
0,
0,
0,
0,
0,
0,
0,
0,
0,
0,
0,
#ENDOFDATA   :