File: NeXLSpectrum/HyperSpectra/PTX/Fe std.msa
#FORMAT      : EMSA/MAS Spectral Data File
#VERSION     : 1.0
#TITLE       : Fe std
#DATE        : 15-MAY-2018
#TIME        : 10:58
#OWNER       : Unknown
#NPOINTS     : 4096
#NCOLUMNS    : 1
#XUNITS      : eV
#YUNITS      : counts
#DATATYPE    : Y
#XPERCHAN    : 9.99856
#OFFSET      : 1.63032
#BEAMKV      : 25
#SIGNALTYPE  : EDS
#ELEVANGLE   : 35
#AZIMANGLE   : 0
#LIVETIME    : 938.485
#REALTIME    : 1283.93
#PROBECUR    : 0.94656
#TDEADLYR    : 0
#TACTLYR     : 0.045
#TALWIND     : 0.003
#CHOFFSET    : 0.0
#XLABEL      : Energy (eV)
#YLABEL      : Counts
#EDSDET      : SDUTW
##SPECIMEN   : Fe std
##D2STDCMP   : Fe,(Fe:100.0),7.87
##DET_HASH   : 97086dfe-e5c2-9c77-3984-1d0b14bbbf41
##CALIB_HASH : 1a36e884-c26d-3547-51b1-d0bb2efdf95a
##WORKING    : 16.99 mm
##SAMPLE     : <BulkSample id="1">\n<mOrientation id="2">\n<double>0.0</double>\n<double>0.0</double>\n<double>-1.0</double>\n</mOrientation>\n</BulkSample>
#SPECTRUM    :
15,
34,
18,
7,
22,
100,
479,
2732,
13797,
26985,
15724,
7574,
8198,
9564,
11589,
15738,
24088,
35712,
42100,
84686,
179838,
196223,
260985,
483317,
391706,
122080,
26175,
11649,
8778,
8091,
8455,
9231,
9770,
10833,
13784,
14812,
13114,
12251,
12736,
13417,
14335,
14837,
15443,
16301,
16850,
17289,
17985,
18819,
19798,
21464,
22347,
21358,
20136,
19794,
21136,
24363,
29601,
32175,
31444,
28627,
26249,
24527,
23398,
23035,
23210,
23619,
23983,
24669,
25329,
25510,
25828,
25998,
26488,
26357,
27045,
27104,
27962,
28193,
28698,
28226,
28426,
28324,
28550,
28946,
28708,
29072,
29182,
29120,
29346,
29319,
29161,
29051,
29031,
29112,
29275,
29295,
29248,
29004,
28703,
29155,
28791,
28818,
28986,
28657,
28829,
28607,
28467,
28479,
28378,
28004,
28091,
28262,
28274,
28044,
27931,
27812,
27665,
27212,
27467,
27179,
26972,
26845,
26887,
26738,
26924,
26425,
26337,
25914,
25995,
25784,
25875,
25719,
25627,
25743,
25451,
25276,
25100,
24833,
24789,
24758,
24303,
24480,
24239,
24069,
23885,
23463,
23507,
23885,
23378,
23417,
23354,
23607,
24173,
25456,
27225,
28464,
27988,
25679,
23343,
22158,
21782,
21622,
21596,
21484,
21334,
20945,
20881,
20720,
20726,
20767,
20731,
20382,
20471,
20247,
20176,
20530,
20681,
20698,
21107,
21520,
21884,
21701,
21142,
20090,
19626,
19275,
19072,
18694,
18852,
18432,
18365,
18242,
18209,
18064,
18079,
18455,
18402,
18578,
18554,
18399,
18707,
18353,
18742,
19064,
19944,
20653,
23244,
30178,
56134,
142284,
357898,
754473,
1242139,
1571971,
1517401,
1124739,
643287,
291048,
110021,
41949,
22365,
17632,
16376,
15991,
15818,
16087,
16134,
17008,
17915,
20648,
26334,
42559,
74948,
127274,
183154,
213967,
200857,
150540,
92002,
48229,
23965,
13825,
10483,
9429,
9100,
9195,
9027,
9154,
9101,
9208,
9323,
9075,
8967,
9010,
9102,
9118,
9077,
9110,
9011,
8953,
8942,
8829,
8741,
8873,
8662,
8671,
8625,
8470,
8743,
8614,
8529,
8521,
8386,
8482,
8410,
8570,
8479,
8156,
8349,
8199,
8334,
8108,
8198,
8151,
8206,
7980,
8035,
8119,
8186,
8071,
8179,
7928,
7882,
7870,
7883,
7756,
7822,
7707,
7665,
7684,
7774,
7842,
7514,
7509,
7505,
7488,
7546,
7489,
7330,
7326,
7274,
7314,
7227,
7178,
7255,
7308,
6980,
7159,
7157,
7111,
7091,
7022,
7016,
6840,
6790,
6818,
6725,
6820,
6783,
6591,
6593,
6754,
6488,
6611,
6539,
6560,
6448,
6451,
6558,
6437,
6245,
6305,
6320,
6153,
6296,
6206,
6324,
6279,
6407,
6254,
6385,
6446,
6329,
6186,
6065,
6057,
5927,
5770,
5936,
5728,
5790,
5609,
5625,
5603,
5541,
5580,
5507,
5484,
5423,
5412,
5365,
5385,
5390,
5276,
5270,
5308,
5293,
5154,
5142,
5091,
4933,
5062,
5082,
5184,
4943,
4976,
4862,
4881,
4828,
4925,
4749,
4711,
4906,
4723,
4862,
4639,
4706,
4678,
4535,
4468,
4614,
4429,
4463,
4464,
4367,
4280,
4293,
4301,
4258,
4322,
4205,
4337,
4177,
4172,
4153,
4122,
4114,
4188,
4234,
4343,
4361,
4378,
4592,
4832,
5361,
5577,
5973,
5856,
5727,
5338,
4781,
4323,
3872,
3873,
3652,
3542,
3511,
3572,
3590,
3572,
3536,
3575,
3607,
3731,
3854,
3937,
3967,
4137,
4074,
3900,
3838,
3524,
3513,
3304,
3209,
3089,
3016,
3045,
2969,
2993,
2917,
2826,
2913,
2810,
2897,
2785,
2796,
2876,
2858,
2781,
2808,
2806,
2684,
2713,
2603,
2600,
2675,
2604,
2577,
2587,
2617,
2595,
2487,
2476,
2439,
2350,
2369,
2386,
2424,
2359,
2332,
2325,
2323,
2361,
2377,
2314,
2285,
2310,
2206,
2285,
2180,
2242,
2181,
2127,
2090,
2095,
2045,
2073,
1977,
1995,
1934,
1935,
2003,
1893,
1890,
1982,
1933,
1966,
1827,
1823,
1789,
1889,
1932,
1791,
1844,
1832,
1795,
1805,
1784,
1718,
1727,
1729,
1677,
1574,
1686,
1647,
1597,
1589,
1611,
1609,
1529,
1525,
1487,
1503,
1408,
1486,
1437,
1389,
1468,
1405,
1474,
1431,
1360,
1392,
1338,
1331,
1299,
1324,
1261,
1333,
1161,
1370,
1226,
1198,
1230,
1249,
1228,
1216,
1186,
1173,
1157,
1170,
1213,
1182,
1129,
1087,
1093,
1090,
1053,
1053,
1124,
1028,
1052,
1079,
1010,
1092,
978,
987,
960,
985,
997,
962,
927,
940,
952,
904,
899,
894,
944,
848,
878,
849,
848,
869,
830,
850,
772,
806,
851,
799,
787,
758,
816,
766,
766,
720,
767,
749,
754,
738,
648,
736,
674,
643,
680,
681,
689,
653,
646,
623,
662,
589,
631,
573,
609,
635,
534,
567,
577,
547,
582,
538,
549,
560,
526,
519,
503,
513,
463,
551,
522,
523,
489,
467,
424,
455,
457,
473,
436,
467,
446,
395,
482,
461,
441,
404,
363,
389,
389,
409,
366,
365,
355,
356,
354,
360,
368,
319,
351,
287,
340,
301,
339,
320,
328,
319,
346,
306,
289,
309,
306,
289,
287,
268,
269,
299,
266,
266,
277,
252,
278,
270,
266,
257,
270,
226,
256,
258,
246,
243,
234,
220,
205,
214,
197,
225,
205,
207,
186,
181,
179,
172,
199,
183,
173,
177,
177,
185,
172,
161,
161,
135,
133,
164,
148,
152,
130,
133,
127,
137,
140,
141,
137,
113,
131,
123,
107,
128,
145,
107,
114,
115,
120,
95,
89,
98,
99,
107,
118,
100,
85,
105,
73,
85,
90,
78,
70,
74,
75,
71,
73,
69,
64,
52,
49,
69,
69,
53,
62,
55,
62,
53,
58,
54,
57,
43,
46,
62,
43,
49,
46,
50,
53,
41,
45,
33,
40,
41,
41,
36,
35,
25,
27,
25,
21,
29,
35,
23,
27,
24,
23,
25,
16,
19,
18,
14,
15,
13,
17,
6,
11,
7,
10,
13,
8,
8,
4,
5,
7,
7,
6,
3,
5,
3,
1,
5,
3,
4,
1,
5,
2,
2,
2,
1,
2,
3,
3,
0,
0,
0,
3,
6,
2,
1,
2,
3,
1,
1,
0,
3,
1,
1,
3,
4,
2,
1,
1,
2,
1,
2,
3,
2,
5,
2,
2,
0,
2,
1,
1,
0,
0,
0,
1,
1,
1,
4,
0,
1,
0,
0,
2,
5,
0,
1,
1,
2,
0,
4,
0,
3,
0,
0,
1,
0,
1,
2,
1,
0,
0,
1,
2,
4,
1,
0,
2,
0,
0,
0,
0,
0,
2,
0,
0,
0,
0,
1,
1,
0,
0,
0,
1,
0,
0,
1,
0,
0,
0,
0,
0,
0,
0,
0,
0,
0,
0,
0,
2,
0,
0,
0,
0,
0,
0,
0,
1,
0,
1,
1,
0,
1,
1,
0,
0,
0,
0,
1,
0,
0,
0,
0,
0,
0,
0,
0,
0,
1,
0,
0,
1,
0,
0,
1,
1,
0,
0,
0,
0,
0,
0,
0,
0,
0,
0,
0,
0,
0,
1,
0,
1,
0,
0,
0,
0,
0,
0,
0,
0,
1,
0,
0,
0,
0,
0,
0,
0,
0,
1,
0,
2,
0,
0,
1,
0,
0,
0,
0,
0,
0,
0,
0,
0,
0,
0,
0,
0,
0,
0,
0,
0,
0,
0,
0,
0,
0,
0,
0,
0,
0,
0,
0,
0,
0,
0,
0,
0,
0,
0,
1,
0,
0,
0,
0,
0,
0,
0,
0,
0,
0,
0,
0,
0,
0,
0,
0,
0,
0,
0,
0,
0,
0,
0,
0,
0,
0,
0,
0,
0,
0,
0,
0,
0,
0,
0,
0,
0,
0,
0,
0,
0,
0,
0,
1,
0,
0,
0,
0,
0,
0,
0,
0,
0,
0,
0,
0,
0,
0,
0,
0,
0,
0,
0,
1,
0,
0,
1,
0,
0,
0,
0,
0,
0,
0,
0,
0,
0,
0,
0,
0,
0,
0,
0,
0,
0,
0,
0,
0,
0,
0,
0,
0,
0,
0,
0,
0,
0,
0,
0,
0,
0,
0,
0,
0,
0,
0,
0,
0,
0,
0,
0,
0,
0,
0,
0,
0,
0,
0,
0,
0,
0,
0,
0,
0,
0,
0,
0,
0,
0,
0,
0,
0,
0,
0,
0,
0,
0,
0,
0,
0,
0,
0,
0,
0,
0,
0,
0,
0,
0,
0,
0,
0,
0,
0,
0,
0,
0,
0,
0,
0,
0,
0,
0,
0,
0,
0,
0,
0,
0,
0,
0,
0,
0,
0,
0,
0,
0,
0,
0,
0,
0,
0,
0,
0,
0,
0,
0,
0,
0,
0,
0,
0,
0,
0,
0,
0,
0,
0,
0,
0,
0,
0,
0,
0,
0,
0,
0,
0,
0,
0,
0,
0,
0,
0,
0,
0,
0,
0,
0,
0,
0,
0,
0,
0,
0,
0,
0,
0,
0,
0,
0,
0,
0,
0,
0,
0,
0,
0,
0,
0,
0,
0,
0,
0,
0,
0,
0,
0,
0,
0,
0,
0,
0,
0,
0,
0,
0,
0,
0,
0,
0,
0,
0,
0,
0,
0,
0,
0,
0,
0,
0,
0,
0,
0,
0,
0,
0,
0,
0,
0,
0,
0,
0,
0,
0,
0,
0,
0,
0,
0,
0,
0,
0,
0,
0,
0,
0,
0,
0,
0,
0,
0,
0,
0,
0,
0,
0,
0,
#ENDOFDATA   :