File: NeXLSpectrum/HyperSpectra/PTX/MgO std.msa
#FORMAT      : EMSA/MAS Spectral Data File
#VERSION     : 1.0
#TITLE       : MgO std
#DATE        : 15-MAY-2018
#TIME        : 09:51
#OWNER       : Unknown
#NPOINTS     : 4096
#NCOLUMNS    : 1
#XUNITS      : eV
#YUNITS      : counts
#DATATYPE    : Y
#XPERCHAN    : 9.99856
#OFFSET      : 1.63032
#BEAMKV      : 25
#SIGNALTYPE  : EDS
#ELEVANGLE   : 35
#AZIMANGLE   : 0
#LIVETIME    : 1172.82
#REALTIME    : 1456.54
#PROBECUR    : 0.94932
#TDEADLYR    : 0
#TACTLYR     : 0.045
#TALWIND     : 0.003
#CHOFFSET    : 0.0
#XLABEL      : Energy (eV)
#YLABEL      : Counts
#EDSDET      : SDUTW
##SPECIMEN   : MgO std
##D2STDCMP   : MgO,(O:39.6964),(Mg:60.3036),5.0
##DET_HASH   : 97086dfe-e5c2-9c77-3984-1d0b14bbbf41
##CALIB_HASH : 1a36e884-c26d-3547-51b1-d0bb2efdf95a
##WORKING    : 16.99 mm
##SAMPLE     : <BulkSample id="1">\n<mOrientation id="2">\n<double>0.0</double>\n<double>0.0</double>\n<double>-1.0</double>\n</mOrientation>\n</BulkSample>
#SPECTRUM    :
23,
19,
14,
3,
25,
79,
426,
1716,
7561,
14198,
9211,
6098,
7043,
9101,
15231,
53383,
282438,
709207,
535586,
119334,
15425,
7955,
8607,
9376,
9437,
9810,
10736,
11721,
12903,
14107,
15622,
17133,
19538,
21882,
25797,
30248,
35756,
43355,
59629,
172693,
921118,
2794136,
3565363,
1892199,
461096,
70710,
16748,
10456,
9676,
10094,
10183,
9819,
9472,
9260,
9735,
10135,
10826,
12587,
16073,
18320,
16833,
13836,
11950,
11644,
11469,
12055,
12291,
12415,
12664,
12954,
13040,
13263,
13356,
13591,
13585,
13648,
13905,
14244,
14250,
14411,
14580,
15803,
18830,
23153,
23778,
20488,
17031,
15041,
14836,
14876,
14833,
14914,
14772,
14498,
14646,
14947,
14718,
14529,
14667,
14628,
14590,
14720,
14651,
14585,
14334,
14428,
14126,
14349,
14222,
14108,
13915,
13823,
13754,
13631,
13814,
13599,
13466,
13556,
13375,
13381,
13456,
13628,
14197,
14144,
14156,
13361,
13019,
12834,
12482,
12457,
12539,
12354,
12396,
12379,
12339,
12131,
11930,
11867,
11679,
11702,
11544,
11581,
11774,
11286,
11392,
11174,
10954,
11112,
10973,
10969,
10792,
10784,
10548,
10705,
10233,
10484,
10440,
10266,
10148,
10089,
9920,
9877,
9858,
9779,
9731,
9469,
9662,
9438,
9624,
9292,
9334,
9093,
9105,
9176,
9092,
8959,
8811,
8880,
9007,
8899,
8911,
8826,
8918,
8640,
8478,
8335,
8211,
8162,
8103,
8135,
7965,
7899,
7794,
7759,
7829,
7711,
7633,
7613,
7600,
7517,
7499,
7322,
7252,
7215,
7323,
7240,
6910,
6920,
6916,
6963,
7121,
7378,
7580,
7651,
7501,
7144,
7042,
6745,
6582,
6451,
6311,
6326,
6150,
6293,
6245,
6309,
6116,
6065,
6066,
6097,
5918,
5923,
5949,
5861,
6001,
5926,
5795,
5739,
5764,
5549,
5684,
5631,
5379,
5396,
5381,
5477,
5401,
5404,
5493,
5361,
5359,
5235,
5150,
5135,
4923,
5071,
4955,
4997,
5004,
4870,
4792,
4905,
4843,
4750,
4729,
4742,
4739,
4646,
4562,
4481,
4596,
4460,
4538,
4486,
4377,
4319,
4388,
4474,
4351,
4331,
4350,
4198,
4196,
4279,
4162,
4027,
4195,
4205,
4103,
4048,
4022,
3947,
3940,
3989,
3834,
3937,
3792,
3810,
3798,
3999,
3750,
3693,
3686,
3698,
3607,
3535,
3636,
3555,
3619,
3572,
3538,
3584,
3445,
3424,
3537,
3320,
3428,
3346,
3289,
3294,
3244,
3174,
3231,
3093,
3263,
3191,
3172,
3123,
3054,
3043,
2995,
3028,
2981,
2988,
2968,
2917,
2902,
2908,
3019,
2838,
2769,
2692,
2794,
2802,
2831,
2793,
2680,
2807,
2754,
2686,
2738,
2854,
2709,
2742,
2651,
2601,
2632,
2617,
2469,
2605,
2443,
2511,
2437,
2453,
2361,
2415,
2393,
2338,
2314,
2344,
2305,
2421,
2310,
2207,
2330,
2292,
2215,
2174,
2149,
2076,
2148,
2164,
2086,
2106,
2020,
1989,
2048,
2096,
2011,
1978,
2011,
2061,
1934,
1914,
2034,
1873,
1846,
1935,
1824,
1853,
1858,
1796,
1837,
1839,
1780,
1798,
1738,
1756,
1742,
1715,
1711,
1759,
1686,
1619,
1646,
1661,
1660,
1680,
1634,
1678,
1735,
1622,
1676,
1538,
1580,
1520,
1492,
1456,
1492,
1429,
1455,
1437,
1447,
1428,
1385,
1427,
1428,
1368,
1287,
1338,
1379,
1372,
1354,
1283,
1313,
1214,
1289,
1246,
1303,
1273,
1227,
1206,
1203,
1271,
1177,
1201,
1201,
1155,
1134,
1136,
1097,
1086,
1066,
1127,
1083,
1048,
1110,
1113,
1031,
1068,
1063,
1060,
1019,
1003,
1032,
964,
1016,
961,
918,
961,
945,
943,
879,
945,
960,
902,
892,
862,
894,
873,
856,
876,
851,
881,
867,
810,
822,
823,
852,
832,
820,
792,
745,
777,
775,
674,
732,
729,
716,
712,
759,
714,
697,
684,
699,
700,
670,
666,
623,
657,
636,
666,
671,
647,
669,
653,
658,
664,
579,
625,
600,
584,
589,
627,
545,
580,
567,
523,
572,
546,
492,
572,
467,
517,
483,
493,
500,
511,
506,
495,
469,
451,
502,
437,
431,
465,
431,
440,
451,
450,
438,
413,
388,
421,
403,
426,
416,
411,
399,
387,
437,
421,
354,
378,
356,
395,
378,
362,
376,
373,
340,
365,
356,
341,
366,
335,
350,
360,
333,
323,
302,
333,
312,
303,
290,
308,
338,
304,
286,
273,
276,
281,
283,
269,
302,
284,
245,
237,
250,
247,
237,
241,
213,
250,
202,
254,
251,
236,
231,
206,
230,
210,
221,
205,
157,
200,
203,
224,
189,
203,
186,
196,
187,
177,
196,
194,
193,
185,
168,
177,
167,
160,
156,
201,
159,
178,
163,
161,
145,
162,
154,
144,
137,
146,
146,
150,
148,
140,
135,
118,
139,
111,
131,
131,
111,
123,
124,
104,
112,
111,
116,
112,
119,
108,
110,
104,
116,
126,
109,
121,
93,
92,
104,
98,
101,
120,
79,
95,
89,
86,
79,
85,
76,
70,
87,
79,
91,
76,
66,
54,
64,
65,
59,
53,
69,
67,
68,
59,
56,
56,
64,
45,
56,
59,
53,
56,
53,
52,
50,
50,
51,
43,
42,
61,
40,
41,
40,
33,
49,
59,
37,
58,
43,
41,
41,
31,
35,
41,
32,
25,
31,
29,
35,
40,
33,
33,
34,
36,
28,
31,
29,
32,
27,
31,
26,
21,
38,
25,
25,
24,
20,
21,
18,
14,
19,
12,
11,
27,
13,
18,
25,
15,
17,
15,
11,
14,
19,
13,
17,
13,
7,
9,
10,
7,
17,
11,
5,
11,
17,
10,
9,
12,
5,
10,
6,
6,
5,
4,
1,
10,
11,
4,
4,
9,
1,
6,
3,
5,
1,
3,
1,
3,
2,
1,
1,
2,
1,
2,
0,
1,
0,
0,
1,
0,
0,
1,
0,
0,
0,
0,
0,
0,
1,
1,
0,
0,
0,
0,
0,
0,
0,
0,
0,
0,
0,
1,
0,
0,
0,
0,
0,
0,
0,
0,
0,
0,
0,
0,
0,
0,
0,
0,
0,
0,
0,
0,
0,
0,
0,
0,
0,
0,
0,
0,
0,
0,
0,
0,
0,
0,
0,
0,
0,
0,
0,
0,
0,
0,
1,
0,
0,
0,
0,
1,
0,
0,
0,
0,
0,
0,
0,
0,
0,
0,
0,
0,
1,
0,
0,
0,
0,
0,
0,
0,
0,
0,
0,
0,
0,
0,
0,
0,
0,
0,
0,
0,
0,
0,
0,
0,
0,
0,
0,
0,
0,
0,
0,
0,
0,
0,
0,
0,
0,
0,
0,
0,
0,
0,
0,
0,
0,
0,
0,
0,
0,
0,
0,
0,
0,
0,
0,
0,
0,
0,
0,
0,
0,
0,
0,
0,
0,
0,
0,
0,
0,
0,
0,
0,
0,
0,
0,
0,
0,
0,
0,
0,
0,
0,
0,
0,
0,
0,
0,
0,
0,
0,
0,
0,
0,
0,
0,
0,
0,
0,
0,
0,
0,
0,
0,
0,
0,
0,
0,
0,
0,
0,
0,
0,
0,
0,
0,
0,
0,
0,
0,
0,
0,
0,
0,
0,
0,
0,
0,
0,
0,
0,
0,
0,
0,
0,
0,
0,
0,
0,
0,
0,
0,
0,
0,
0,
0,
0,
0,
0,
0,
0,
0,
0,
0,
0,
0,
0,
0,
0,
0,
0,
0,
0,
0,
0,
0,
0,
0,
0,
0,
0,
0,
0,
0,
0,
0,
0,
0,
0,
0,
0,
0,
0,
0,
0,
0,
0,
0,
0,
0,
0,
0,
0,
0,
0,
0,
0,
0,
0,
0,
0,
0,
0,
0,
0,
0,
0,
0,
0,
0,
0,
0,
0,
0,
0,
0,
0,
0,
0,
0,
0,
0,
0,
0,
0,
0,
0,
0,
0,
0,
0,
0,
0,
0,
0,
0,
0,
0,
0,
0,
0,
0,
0,
0,
0,
0,
0,
0,
0,
0,
0,
0,
0,
0,
0,
0,
0,
0,
0,
0,
0,
0,
0,
0,
0,
0,
0,
0,
0,
0,
0,
0,
0,
0,
0,
0,
0,
0,
0,
0,
0,
0,
0,
0,
0,
0,
0,
0,
0,
0,
0,
0,
0,
0,
0,
0,
0,
0,
0,
0,
0,
0,
0,
0,
0,
0,
0,
0,
0,
0,
0,
0,
0,
0,
0,
0,
0,
0,
0,
0,
0,
0,
0,
0,
0,
0,
0,
0,
0,
0,
0,
0,
0,
0,
0,
0,
0,
0,
0,
0,
0,
0,
0,
0,
0,
0,
0,
0,
0,
0,
0,
0,
0,
0,
0,
0,
0,
0,
0,
0,
0,
0,
0,
0,
0,
0,
0,
0,
0,
0,
0,
0,
0,
0,
0,
0,
0,
0,
0,
0,
0,
0,
0,
0,
0,
0,
0,
0,
0,
0,
0,
0,
0,
0,
0,
0,
0,
0,
0,
0,
0,
0,
0,
0,
0,
0,
0,
0,
0,
0,
0,
0,
0,
0,
0,
0,
0,
0,
0,
0,
0,
0,
0,
0,
0,
0,
0,
0,
0,
0,
0,
0,
0,
0,
0,
0,
0,
0,
0,
0,
0,
0,
0,
0,
0,
0,
0,
0,
0,
0,
0,
0,
0,
0,
0,
0,
0,
0,
0,
0,
0,
#ENDOFDATA   :