File: NeXLSpectrum/HyperSpectra/PTX/Mo std.msa
#FORMAT      : EMSA/MAS Spectral Data File
#VERSION     : 1.0
#TITLE       : Mo std
#DATE        : 15-MAY-2018
#TIME        : 02:21
#OWNER       : Unknown
#NPOINTS     : 4096
#NCOLUMNS    : 1
#XUNITS      : eV
#YUNITS      : counts
#DATATYPE    : Y
#XPERCHAN    : 9.99856
#OFFSET      : 1.63032
#BEAMKV      : 25
#SIGNALTYPE  : EDS
#ELEVANGLE   : 35
#AZIMANGLE   : 0
#LIVETIME    : 1162.8
#REALTIME    : 1707.81
#PROBECUR    : 0.94129
#TDEADLYR    : 0
#TACTLYR     : 0.045
#TALWIND     : 0.003
#CHOFFSET    : 0.0
#XLABEL      : Energy (eV)
#YLABEL      : Counts
#EDSDET      : SDUTW
##SPECIMEN   : Mo std
##D2STDCMP   : Mo,(Mo:100.0),5.0
##DET_HASH   : 97086dfe-e5c2-9c77-3984-1d0b14bbbf41
##CALIB_HASH : 1a36e884-c26d-3547-51b1-d0bb2efdf95a
##WORKING    : 16.99 mm
##SAMPLE     : <BulkSample id="1">\n<mOrientation id="2">\n<double>0.0</double>\n<double>0.0</double>\n<double>-1.0</double>\n</mOrientation>\n</BulkSample>
#SPECTRUM    :
21,
37,
24,
15,
188,
2591,
12605,
19385,
21325,
23993,
14437,
8999,
9510,
10155,
10488,
12901,
18429,
40480,
74179,
59804,
30462,
34452,
39560,
30321,
26458,
25127,
23882,
24612,
25959,
27590,
28884,
30289,
31622,
33636,
35427,
36976,
38718,
40881,
41950,
43573,
45382,
46923,
48610,
50145,
51291,
52710,
53343,
55447,
57938,
62446,
63379,
60496,
57386,
57252,
57464,
58410,
60278,
63222,
65949,
66330,
66326,
64938,
63255,
63583,
68993,
87145,
127429,
165022,
157546,
124441,
112358,
112949,
120199,
189865,
532959,
1472822,
2624218,
2734139,
1901603,
1425682,
1323428,
1008026,
612253,
371237,
227106,
131467,
80088,
59532,
48058,
36317,
28339,
25812,
27376,
31915,
37287,
36935,
31455,
26226,
24069,
23447,
23647,
23653,
24101,
24024,
24524,
24924,
24770,
24964,
25373,
25376,
25822,
25992,
26129,
26366,
26598,
26659,
26971,
27482,
27148,
27317,
27521,
27794,
27920,
27598,
27957,
28260,
27896,
28001,
28420,
28384,
28574,
28622,
28793,
28449,
28613,
28613,
29185,
28878,
29264,
28737,
28912,
28952,
29020,
29313,
29669,
29564,
29582,
29350,
29394,
29669,
30502,
32218,
34557,
36358,
36532,
36187,
36006,
35318,
33885,
33019,
31928,
30522,
29659,
29404,
28774,
28706,
28515,
27768,
28203,
27583,
27663,
27799,
27635,
27274,
27534,
27660,
27581,
27204,
27734,
27498,
27874,
28115,
27817,
27234,
26837,
26468,
26399,
26320,
26212,
26092,
25878,
26075,
26253,
25645,
25871,
25722,
25795,
25491,
25529,
25675,
25604,
25224,
24721,
24856,
24652,
24212,
24582,
24422,
24561,
24361,
24485,
25382,
25937,
26661,
26452,
25313,
24729,
23920,
23660,
23480,
23541,
23032,
23223,
23187,
23131,
22980,
22749,
22548,
22541,
22390,
22321,
22277,
22378,
22112,
22402,
22327,
22127,
21945,
21693,
21264,
21429,
21387,
21287,
21020,
21011,
20871,
21185,
21152,
21114,
21338,
21092,
20883,
20572,
20104,
20186,
19771,
19802,
19961,
19599,
19606,
19453,
19428,
19346,
19208,
19007,
19096,
19016,
19083,
18886,
19034,
18547,
18625,
18564,
18311,
18290,
18227,
18362,
18334,
18119,
17938,
17879,
17836,
17771,
17655,
17587,
17444,
17401,
17112,
17252,
17128,
16823,
16869,
16974,
16680,
16570,
16850,
16479,
16286,
16281,
16153,
16168,
16005,
16109,
15897,
15665,
16032,
15460,
15572,
15463,
15517,
15560,
15191,
15286,
14976,
15103,
14835,
14761,
15052,
14822,
14652,
14737,
14536,
14645,
14642,
14353,
14115,
14309,
13865,
14124,
13979,
13850,
13907,
13820,
13637,
13621,
13580,
13358,
13457,
13422,
13416,
13212,
13131,
13162,
12782,
12872,
12873,
12902,
12852,
13022,
13200,
13510,
13409,
13475,
13191,
12696,
12547,
12295,
12018,
12078,
11834,
11671,
12020,
11974,
11519,
11676,
11359,
11240,
11330,
11135,
11146,
11228,
11222,
11031,
10810,
10973,
10952,
10677,
10724,
10613,
10585,
10640,
10386,
10485,
10278,
10337,
10538,
10280,
10103,
10039,
9871,
9827,
9751,
9799,
9946,
9583,
9633,
9504,
9635,
9399,
9327,
9500,
9214,
9222,
9124,
9192,
9116,
8937,
9074,
8875,
8769,
8621,
8731,
8763,
8656,
8629,
8805,
8626,
8957,
8874,
8927,
9181,
9012,
8956,
8773,
8442,
8193,
7904,
8071,
7791,
7930,
7713,
7564,
7581,
7449,
7499,
7335,
7396,
7328,
7360,
7090,
7150,
6951,
7068,
6948,
6883,
7065,
6876,
7052,
6790,
6601,
6696,
6568,
6420,
6484,
6479,
6472,
6444,
6250,
6426,
6188,
6164,
6127,
6133,
6013,
6167,
5920,
6044,
5842,
5923,
5802,
5716,
5699,
5749,
5744,
5664,
5618,
5463,
5448,
5404,
5505,
5181,
5414,
5257,
5191,
5265,
5206,
5057,
5099,
5228,
5108,
4952,
5023,
5044,
4903,
4810,
4809,
4717,
4609,
4513,
4624,
4611,
4504,
4615,
4493,
4512,
4520,
4348,
4340,
4269,
4328,
4160,
4298,
4155,
4040,
4100,
4006,
4086,
4036,
3992,
3969,
3951,
4013,
3931,
3965,
3928,
4009,
3827,
3868,
3738,
3703,
3694,
3626,
3559,
3481,
3473,
3407,
3426,
3371,
3396,
3393,
3279,
3311,
3289,
3236,
3212,
3270,
3162,
3128,
3103,
3154,
3117,
3037,
2971,
2996,
2925,
2910,
2894,
2854,
2897,
2799,
2853,
2794,
2742,
2724,
2752,
2753,
2669,
2704,
2658,
2657,
2852,
2895,
3178,
3840,
4854,
6484,
8464,
10857,
13625,
16012,
18274,
19108,
18748,
17084,
14561,
11591,
8515,
6286,
4528,
3440,
2748,
2443,
2238,
2132,
2138,
2032,
2059,
1968,
1893,
1935,
1872,
1909,
1859,
1878,
1786,
1786,
1768,
1774,
1804,
1713,
1732,
1655,
1657,
1559,
1633,
1670,
1643,
1553,
1665,
1573,
1558,
1509,
1493,
1473,
1452,
1469,
1507,
1456,
1510,
1414,
1403,
1350,
1430,
1395,
1309,
1398,
1258,
1325,
1271,
1308,
1202,
1282,
1272,
1286,
1270,
1356,
1432,
1581,
1831,
2113,
2614,
3010,
3179,
3200,
3142,
2836,
2565,
2109,
1791,
1481,
1372,
1301,
1249,
1260,
1276,
1236,
1218,
1133,
1033,
990,
892,
924,
844,
777,
770,
813,
768,
777,
743,
755,
736,
719,
677,
710,
732,
707,
685,
676,
668,
637,
687,
604,
593,
620,
657,
590,
608,
555,
606,
612,
616,
536,
568,
596,
534,
507,
545,
539,
539,
499,
484,
496,
464,
464,
521,
511,
477,
438,
445,
451,
415,
454,
435,
408,
396,
432,
373,
395,
382,
388,
401,
362,
355,
363,
343,
346,
363,
368,
317,
317,
286,
296,
298,
287,
297,
270,
290,
296,
258,
273,
226,
261,
279,
271,
213,
241,
223,
190,
214,
224,
205,
217,
214,
201,
203,
179,
177,
208,
179,
183,
187,
166,
186,
143,
167,
160,
130,
161,
128,
155,
139,
139,
145,
150,
124,
114,
135,
114,
115,
95,
109,
111,
95,
86,
106,
91,
100,
78,
76,
90,
76,
77,
77,
68,
85,
57,
59,
47,
66,
52,
56,
54,
66,
53,
51,
43,
36,
30,
33,
30,
34,
40,
34,
25,
24,
17,
12,
13,
17,
14,
11,
20,
7,
6,
13,
12,
5,
4,
5,
4,
5,
7,
8,
4,
6,
3,
2,
5,
5,
4,
4,
5,
3,
5,
2,
1,
2,
7,
1,
5,
6,
2,
3,
5,
4,
1,
3,
4,
3,
2,
1,
1,
1,
1,
1,
2,
4,
1,
2,
2,
1,
2,
1,
0,
0,
3,
3,
3,
1,
5,
1,
2,
3,
2,
2,
2,
0,
1,
1,
2,
4,
3,
3,
1,
5,
0,
0,
1,
1,
0,
1,
2,
1,
2,
1,
0,
2,
2,
3,
2,
3,
1,
3,
2,
1,
0,
1,
1,
0,
2,
0,
1,
2,
0,
2,
2,
3,
0,
1,
1,
0,
0,
3,
0,
4,
0,
1,
0,
0,
1,
2,
1,
0,
2,
0,
0,
1,
0,
0,
0,
0,
1,
0,
1,
0,
1,
2,
0,
0,
0,
0,
0,
2,
1,
0,
0,
2,
0,
2,
0,
0,
0,
0,
0,
0,
1,
1,
0,
0,
2,
2,
0,
0,
1,
0,
2,
0,
1,
1,
1,
0,
0,
2,
0,
2,
1,
0,
0,
1,
0,
0,
0,
0,
0,
0,
0,
1,
0,
1,
0,
0,
0,
0,
0,
1,
1,
1,
0,
0,
0,
1,
0,
0,
2,
0,
0,
1,
0,
0,
0,
0,
0,
1,
0,
0,
0,
0,
1,
0,
1,
0,
0,
0,
0,
0,
0,
1,
0,
0,
0,
0,
0,
0,
0,
0,
1,
1,
1,
0,
0,
1,
1,
1,
0,
0,
0,
0,
0,
0,
0,
0,
0,
0,
0,
0,
1,
0,
0,
0,
1,
0,
0,
0,
0,
1,
0,
0,
0,
0,
0,
1,
0,
0,
0,
0,
1,
0,
0,
0,
0,
0,
1,
0,
0,
0,
0,
0,
0,
0,
0,
0,
0,
0,
1,
0,
0,
1,
0,
0,
0,
0,
0,
0,
0,
1,
0,
0,
0,
0,
1,
1,
0,
0,
0,
0,
0,
0,
0,
0,
0,
0,
0,
0,
0,
0,
0,
0,
1,
0,
0,
0,
1,
0,
0,
0,
0,
0,
0,
1,
0,
0,
0,
0,
0,
0,
0,
0,
0,
0,
0,
0,
0,
0,
0,
0,
0,
0,
0,
0,
0,
0,
0,
0,
0,
0,
0,
0,
0,
0,
0,
1,
0,
0,
0,
0,
0,
0,
0,
0,
0,
0,
1,
0,
0,
0,
0,
0,
0,
0,
0,
0,
0,
0,
0,
0,
0,
0,
1,
0,
0,
0,
0,
0,
0,
0,
0,
0,
0,
0,
0,
0,
0,
0,
0,
0,
0,
0,
0,
0,
0,
0,
0,
0,
0,
0,
0,
0,
0,
0,
0,
0,
0,
0,
0,
0,
0,
0,
0,
0,
0,
0,
0,
0,
0,
0,
0,
0,
0,
0,
0,
0,
0,
0,
0,
0,
0,
0,
0,
0,
0,
0,
0,
0,
0,
0,
0,
0,
0,
0,
0,
0,
0,
0,
0,
0,
0,
0,
0,
0,
0,
0,
0,
0,
0,
0,
0,
0,
0,
0,
0,
0,
0,
0,
0,
0,
0,
0,
0,
0,
0,
0,
0,
0,
0,
0,
0,
0,
0,
0,
0,
0,
0,
0,
0,
0,
0,
0,
0,
0,
0,
0,
0,
0,
0,
0,
0,
0,
0,
0,
0,
0,
0,
0,
0,
0,
0,
#ENDOFDATA   :