File: NeXLSpectrum/HyperSpectra/PTX/Si std.msa
#FORMAT      : EMSA/MAS Spectral Data File
#VERSION     : 1.0
#TITLE       : Si std
#DATE        : 15-MAY-2018
#TIME        : 09:22
#OWNER       : Unknown
#NPOINTS     : 4096
#NCOLUMNS    : 1
#XUNITS      : eV
#YUNITS      : counts
#DATATYPE    : Y
#XPERCHAN    : 9.99856
#OFFSET      : 1.63032
#BEAMKV      : 25
#SIGNALTYPE  : EDS
#ELEVANGLE   : 35
#AZIMANGLE   : 0
#LIVETIME    : 1149.75
#REALTIME    : 1872.97
#PROBECUR    : 0.95147
#TDEADLYR    : 0
#TACTLYR     : 0.045
#TALWIND     : 0.003
#CHOFFSET    : 0.0
#XLABEL      : Energy (eV)
#YLABEL      : Counts
#EDSDET      : SDUTW
##SPECIMEN   : Si std
##D2STDCMP   : Si,(Si:100.0),2.95
##DET_HASH   : 97086dfe-e5c2-9c77-3984-1d0b14bbbf41
##CALIB_HASH : 1a36e884-c26d-3547-51b1-d0bb2efdf95a
##WORKING    : 16.99 mm
##SAMPLE     : <BulkSample id="1">\n<mOrientation id="2">\n<double>0.0</double>\n<double>0.0</double>\n<double>-1.0</double>\n</mOrientation>\n</BulkSample>
#SPECTRUM    :
19,
27,
12,
8,
21,
104,
403,
1588,
5618,
10216,
7318,
5513,
5872,
6474,
7137,
8542,
10886,
13239,
13141,
12509,
13841,
15179,
16956,
18887,
20620,
22105,
24203,
26015,
28298,
29779,
31926,
34088,
36025,
37835,
39476,
41120,
42603,
43910,
44671,
46432,
47767,
48573,
49898,
51325,
52517,
54462,
57643,
61061,
67380,
76049,
82317,
83816,
85550,
87121,
112505,
416594,
2158170,
6359504,
9057890,
6220539,
2301257,
741231,
324996,
119654,
32008,
12139,
9541,
9400,
9496,
9482,
9434,
9989,
10118,
10692,
10724,
11077,
11542,
11780,
11902,
11917,
12047,
12564,
12692,
12718,
12990,
12956,
13310,
13576,
13651,
14003,
13969,
14075,
14155,
14473,
14543,
14413,
14651,
14854,
14695,
14992,
15117,
14884,
15306,
15138,
15297,
15581,
15335,
15591,
15795,
16035,
15838,
16273,
17240,
22964,
38496,
62519,
77533,
68321,
46193,
29571,
21332,
17621,
15395,
14766,
14734,
14380,
14370,
14214,
14477,
14301,
14395,
14279,
14235,
14255,
14086,
14004,
14024,
13979,
13818,
13926,
13824,
13595,
13746,
13666,
13695,
13538,
13516,
13292,
13153,
13440,
13334,
13408,
13178,
13000,
13050,
12916,
12978,
12735,
12791,
12459,
12626,
12684,
12409,
12170,
12463,
12267,
12136,
12141,
12115,
12053,
12165,
11901,
11821,
11948,
12111,
12047,
11656,
11685,
11634,
11652,
11747,
11496,
11498,
11357,
11067,
10887,
10820,
10768,
10624,
10776,
10658,
10581,
10451,
10483,
10311,
10344,
10265,
10119,
10273,
9974,
9948,
9822,
9887,
10022,
9649,
9775,
9583,
9499,
9448,
9661,
9579,
9726,
9905,
10221,
10148,
9803,
9470,
9177,
8979,
8666,
8825,
8760,
8683,
8726,
8584,
8467,
8463,
8488,
8471,
8322,
8289,
8140,
8318,
8041,
8159,
8136,
7998,
7923,
7785,
7778,
7730,
7730,
7847,
7765,
7629,
7592,
7568,
7410,
7479,
7479,
7365,
7339,
7303,
7088,
7034,
7028,
7045,
6846,
6973,
6864,
6850,
6843,
6853,
6632,
6560,
6644,
6555,
6644,
6455,
6527,
6408,
6469,
6417,
6370,
6319,
6301,
6202,
6262,
6276,
6042,
6167,
6062,
5937,
6033,
5852,
5927,
5772,
5830,
5712,
5672,
5654,
5693,
5797,
5772,
5589,
5401,
5389,
5589,
5538,
5271,
5504,
5440,
5345,
5238,
5147,
5398,
5163,
5163,
5156,
5150,
5010,
5072,
4884,
4942,
4936,
4924,
4810,
4877,
4832,
4849,
4751,
4696,
4512,
4582,
4899,
4488,
4514,
4541,
4480,
4646,
4428,
4454,
4337,
4331,
4379,
4201,
4142,
4198,
4260,
4169,
4198,
4095,
4161,
4128,
4035,
4050,
4100,
4141,
3964,
4095,
4170,
4231,
4142,
3953,
3973,
3798,
3794,
3819,
3678,
3571,
3799,
3673,
3680,
3586,
3590,
3433,
3589,
3566,
3397,
3391,
3488,
3481,
3343,
3388,
3261,
3317,
3347,
3399,
3235,
3189,
3196,
3221,
3267,
3089,
3076,
3157,
3054,
3060,
3037,
3064,
2995,
3020,
2936,
2934,
2940,
2889,
2891,
2763,
2839,
2770,
2820,
2838,
2676,
2760,
2665,
2723,
2599,
2664,
2704,
2551,
2642,
2539,
2574,
2527,
2481,
2515,
2457,
2621,
2561,
2577,
2478,
2559,
2551,
2490,
2465,
2360,
2267,
2238,
2268,
2339,
2148,
2179,
2192,
2148,
2160,
2159,
2090,
2086,
2011,
2079,
1990,
2063,
1942,
1942,
1976,
1866,
2051,
1969,
1905,
1865,
1877,
1886,
1818,
1814,
1843,
1801,
1785,
1726,
1717,
1712,
1788,
1627,
1669,
1622,
1664,
1635,
1655,
1595,
1680,
1681,
1510,
1567,
1545,
1489,
1457,
1564,
1515,
1502,
1491,
1454,
1581,
1442,
1471,
1404,
1463,
1402,
1397,
1408,
1415,
1290,
1380,
1377,
1292,
1343,
1441,
1315,
1234,
1285,
1295,
1245,
1272,
1217,
1269,
1214,
1132,
1237,
1171,
1168,
1122,
1254,
1009,
1101,
1076,
1127,
1091,
1106,
1119,
1028,
1029,
993,
1070,
997,
1057,
1014,
1032,
996,
1038,
1011,
992,
962,
942,
926,
913,
920,
869,
895,
838,
817,
890,
826,
855,
812,
844,
815,
788,
800,
830,
793,
766,
760,
739,
755,
730,
759,
723,
709,
741,
715,
688,
675,
697,
706,
660,
694,
708,
689,
644,
644,
642,
661,
633,
596,
602,
599,
564,
657,
592,
628,
555,
552,
568,
564,
524,
559,
536,
546,
547,
573,
524,
546,
529,
514,
490,
496,
480,
478,
481,
470,
476,
407,
456,
446,
446,
471,
457,
413,
436,
450,
402,
391,
406,
399,
364,
379,
395,
402,
363,
366,
364,
369,
383,
363,
328,
347,
349,
342,
330,
323,
339,
311,
302,
298,
336,
303,
304,
301,
337,
288,
287,
275,
269,
286,
275,
284,
273,
277,
262,
287,
224,
263,
265,
231,
225,
225,
243,
247,
242,
270,
213,
219,
221,
197,
230,
215,
204,
186,
209,
219,
183,
203,
177,
209,
184,
176,
172,
158,
170,
174,
163,
174,
176,
169,
175,
153,
178,
165,
169,
136,
171,
142,
117,
142,
144,
126,
122,
145,
141,
138,
115,
131,
122,
138,
115,
100,
131,
118,
96,
104,
100,
118,
114,
103,
126,
102,
97,
112,
99,
96,
65,
95,
96,
71,
100,
87,
82,
84,
84,
74,
79,
73,
78,
70,
61,
64,
69,
76,
66,
71,
71,
62,
48,
64,
59,
60,
50,
57,
49,
63,
48,
40,
51,
46,
42,
44,
41,
53,
47,
45,
45,
47,
47,
41,
48,
46,
29,
44,
45,
37,
38,
28,
28,
25,
25,
35,
24,
31,
38,
41,
42,
29,
24,
29,
33,
29,
34,
19,
29,
15,
27,
10,
13,
23,
20,
19,
18,
16,
19,
17,
17,
14,
21,
13,
7,
19,
15,
8,
9,
6,
8,
16,
9,
14,
11,
9,
5,
5,
5,
8,
4,
2,
2,
4,
4,
5,
3,
4,
8,
5,
3,
1,
3,
2,
2,
1,
1,
2,
1,
0,
2,
0,
0,
0,
0,
0,
1,
0,
0,
1,
0,
0,
0,
1,
0,
0,
0,
0,
0,
1,
1,
0,
2,
1,
0,
0,
2,
0,
0,
0,
0,
0,
0,
0,
0,
0,
0,
0,
0,
0,
0,
0,
0,
1,
0,
0,
1,
0,
0,
0,
0,
0,
0,
0,
0,
0,
0,
0,
1,
0,
0,
0,
0,
0,
0,
0,
0,
0,
0,
0,
0,
0,
0,
0,
0,
0,
0,
0,
0,
0,
0,
0,
0,
0,
0,
0,
0,
0,
0,
0,
0,
0,
0,
0,
0,
0,
1,
0,
0,
0,
1,
0,
0,
0,
0,
0,
0,
0,
0,
1,
0,
0,
0,
0,
0,
0,
0,
0,
0,
0,
0,
0,
1,
1,
1,
1,
1,
0,
0,
0,
0,
0,
0,
0,
0,
0,
0,
0,
0,
0,
0,
0,
1,
0,
0,
0,
0,
0,
0,
0,
0,
0,
0,
0,
0,
1,
0,
0,
0,
0,
0,
0,
0,
0,
0,
0,
0,
0,
0,
1,
0,
0,
0,
0,
0,
0,
0,
0,
0,
0,
0,
0,
0,
0,
0,
0,
0,
0,
0,
0,
0,
0,
0,
0,
0,
0,
0,
0,
0,
1,
0,
0,
0,
0,
0,
0,
0,
0,
0,
0,
0,
0,
0,
0,
0,
1,
0,
0,
0,
0,
0,
0,
0,
0,
0,
0,
0,
0,
0,
0,
0,
0,
0,
0,
0,
0,
0,
0,
0,
0,
0,
0,
0,
0,
0,
0,
0,
0,
0,
0,
0,
0,
0,
0,
0,
0,
0,
0,
0,
0,
0,
0,
0,
0,
0,
0,
0,
0,
0,
0,
0,
0,
0,
0,
0,
0,
0,
0,
0,
0,
0,
0,
0,
0,
0,
0,
0,
0,
0,
1,
0,
0,
0,
0,
0,
0,
0,
0,
0,
0,
0,
0,
0,
0,
0,
0,
0,
0,
0,
0,
0,
0,
0,
0,
0,
0,
0,
0,
0,
0,
0,
0,
0,
0,
0,
0,
0,
0,
0,
0,
0,
0,
0,
0,
0,
0,
0,
0,
0,
0,
0,
0,
0,
0,
0,
0,
0,
0,
0,
0,
0,
0,
0,
0,
0,
0,
0,
0,
0,
0,
0,
0,
0,
0,
0,
0,
0,
0,
0,
0,
0,
0,
0,
0,
0,
0,
0,
0,
0,
0,
0,
0,
0,
0,
0,
0,
0,
0,
0,
0,
0,
0,
0,
0,
0,
0,
0,
0,
0,
0,
0,
0,
0,
0,
0,
0,
0,
0,
0,
0,
0,
0,
0,
0,
0,
0,
0,
0,
0,
0,
0,
0,
0,
0,
0,
0,
0,
0,
0,
0,
0,
0,
0,
0,
0,
0,
0,
0,
0,
0,
0,
0,
0,
0,
0,
0,
0,
0,
0,
0,
0,
0,
0,
0,
0,
0,
0,
0,
0,
0,
0,
0,
0,
0,
0,
0,
0,
0,
0,
0,
0,
0,
0,
0,
0,
0,
0,
0,
0,
0,
0,
0,
0,
0,
0,
0,
0,
0,
0,
0,
0,
0,
0,
0,
0,
0,
0,
0,
0,
0,
0,
0,
0,
0,
0,
0,
0,
0,
0,
0,
0,
0,
0,
0,
0,
0,
0,
0,
0,
0,
0,
0,
0,
0,
0,
0,
0,
0,
#ENDOFDATA   :