File: NeXLSpectrum/HyperSpectra/PTX/Spectrum[1].msa
#FORMAT      : EMSA/MAS Spectral Data File
#VERSION     : 1.0
#TITLE       : Sum[det=1]
#DATE        : 31-DEC-1969
#TIME        : 07:00
#OWNER       : Unknown
#NPOINTS     : 2048
#NCOLUMNS    : 1
#XUNITS      : eV
#YUNITS      : counts
#DATATYPE    : Y
#XPERCHAN    : 10
#OFFSET      : 0
#SIGNALTYPE  : EDS
#LIVETIME    : 0
#REALTIME    : 0
#CHOFFSET    : 0.0
#XLABEL      : Energy (eV)
#YLABEL      : Counts
##SPECIMEN   : Sum[det=1]
#SPECTRUM    :
0,
0,
0,
0,
0,
0,
1,
9,
24,
171,
1155,
6655,
23435,
42698,
40731,
19818,
5075,
932,
301,
292,
267,
354,
519,
1249,
3028,
5599,
6474,
4455,
2015,
869,
634,
547,
620,
851,
1299,
1606,
1446,
967,
609,
452,
433,
456,
450,
456,
496,
592,
687,
680,
700,
769,
904,
1204,
1355,
1180,
887,
750,
657,
687,
711,
739,
728,
838,
870,
885,
859,
886,
802,
823,
850,
876,
870,
920,
944,
1015,
1003,
940,
961,
946,
843,
884,
889,
893,
840,
1019,
1034,
1356,
1598,
1699,
1547,
1345,
1126,
981,
915,
874,
856,
807,
790,
888,
839,
930,
979,
943,
973,
902,
836,
789,
785,
803,
826,
798,
836,
879,
1208,
1645,
2164,
2426,
2441,
2011,
1505,
1011,
881,
831,
813,
837,
842,
799,
768,
760,
773,
718,
703,
706,
706,
699,
695,
689,
610,
649,
664,
610,
646,
671,
649,
656,
587,
559,
616,
625,
604,
649,
574,
576,
576,
567,
539,
512,
549,
570,
546,
557,
550,
538,
531,
555,
544,
596,
576,
547,
525,
527,
487,
484,
504,
490,
517,
450,
465,
494,
503,
484,
521,
485,
499,
507,
472,
488,
510,
432,
477,
478,
457,
496,
405,
442,
471,
417,
444,
436,
466,
408,
402,
406,
413,
422,
418,
400,
410,
410,
406,
373,
401,
353,
422,
401,
362,
382,
398,
389,
378,
378,
401,
446,
459,
461,
473,
430,
414,
398,
400,
380,
351,
372,
369,
335,
378,
357,
326,
337,
349,
349,
388,
337,
389,
379,
326,
307,
343,
304,
308,
331,
321,
331,
295,
298,
310,
304,
334,
278,
286,
307,
266,
267,
282,
305,
302,
302,
265,
295,
275,
292,
255,
279,
284,
271,
283,
284,
235,
274,
280,
260,
246,
240,
270,
272,
279,
247,
252,
245,
245,
250,
259,
237,
282,
238,
250,
237,
254,
254,
229,
236,
241,
240,
218,
234,
223,
247,
255,
264,
238,
249,
263,
283,
395,
591,
950,
1619,
2454,
3699,
4704,
5569,
5594,
5205,
4267,
3167,
2085,
1331,
789,
469,
364,
264,
231,
241,
229,
231,
210,
225,
210,
211,
196,
189,
201,
218,
214,
208,
243,
267,
299,
332,
425,
551,
728,
819,
873,
830,
819,
673,
494,
405,
360,
211,
219,
194,
174,
164,
165,
136,
172,
174,
189,
159,
166,
145,
155,
179,
166,
158,
171,
165,
162,
163,
141,
149,
138,
127,
159,
154,
144,
132,
153,
157,
149,
145,
126,
153,
139,
163,
167,
184,
191,
227,
277,
266,
304,
287,
239,
214,
177,
172,
176,
161,
139,
149,
147,
121,
127,
141,
116,
143,
136,
126,
136,
113,
127,
128,
135,
113,
131,
132,
118,
129,
109,
119,
123,
109,
129,
127,
127,
115,
128,
121,
135,
130,
148,
146,
142,
121,
133,
127,
138,
127,
136,
115,
130,
125,
101,
120,
132,
107,
92,
106,
120,
94,
104,
103,
111,
115,
114,
124,
114,
121,
115,
95,
91,
111,
90,
108,
119,
88,
104,
98,
98,
105,
105,
103,
100,
112,
93,
94,
90,
93,
93,
100,
117,
73,
97,
109,
79,
82,
86,
101,
92,
105,
96,
97,
98,
85,
91,
97,
85,
89,
88,
86,
76,
71,
92,
100,
84,
78,
66,
77,
75,
75,
91,
74,
81,
88,
89,
89,
75,
69,
99,
64,
83,
80,
88,
86,
61,
79,
78,
73,
70,
90,
95,
71,
77,
76,
79,
76,
88,
72,
70,
65,
73,
69,
65,
64,
77,
76,
84,
63,
91,
72,
65,
73,
70,
69,
75,
59,
63,
68,
61,
59,
61,
74,
60,
57,
61,
72,
52,
61,
67,
73,
56,
57,
58,
68,
62,
68,
65,
59,
64,
62,
41,
65,
61,
64,
66,
75,
60,
45,
45,
65,
61,
63,
73,
47,
52,
50,
55,
48,
66,
56,
47,
57,
62,
42,
77,
62,
61,
55,
44,
51,
52,
59,
68,
58,
50,
53,
57,
55,
56,
43,
50,
58,
56,
57,
56,
54,
47,
46,
37,
43,
50,
54,
51,
47,
54,
45,
56,
49,
50,
45,
49,
41,
41,
40,
42,
36,
34,
48,
41,
45,
46,
53,
53,
43,
41,
26,
48,
58,
34,
39,
34,
44,
31,
31,
36,
34,
36,
45,
45,
49,
53,
39,
29,
40,
43,
44,
35,
38,
38,
45,
31,
34,
34,
47,
28,
32,
27,
33,
33,
37,
38,
31,
31,
44,
32,
30,
30,
44,
27,
28,
24,
32,
36,
31,
25,
33,
38,
29,
33,
34,
31,
30,
32,
25,
24,
34,
30,
21,
30,
28,
22,
33,
38,
32,
19,
15,
38,
36,
30,
33,
33,
23,
21,
26,
29,
24,
24,
28,
26,
19,
27,
27,
23,
29,
27,
29,
26,
31,
22,
31,
13,
23,
21,
25,
28,
28,
13,
25,
25,
21,
26,
17,
24,
27,
18,
25,
26,
21,
17,
16,
19,
15,
20,
23,
23,
19,
18,
23,
18,
22,
21,
20,
24,
17,
16,
24,
22,
17,
28,
20,
18,
14,
16,
19,
24,
12,
17,
14,
11,
13,
18,
15,
22,
12,
7,
14,
16,
24,
18,
14,
13,
15,
18,
10,
12,
21,
13,
17,
18,
15,
17,
16,
10,
12,
16,
18,
12,
9,
18,
8,
14,
7,
12,
10,
16,
12,
16,
14,
16,
9,
13,
7,
14,
15,
18,
14,
13,
14,
12,
14,
12,
16,
15,
15,
13,
10,
9,
10,
6,
9,
16,
18,
10,
12,
16,
3,
9,
12,
5,
6,
13,
9,
12,
8,
7,
12,
11,
12,
8,
7,
11,
10,
5,
4,
10,
13,
4,
3,
8,
9,
8,
9,
9,
6,
10,
4,
5,
7,
10,
5,
10,
5,
5,
7,
10,
7,
11,
8,
9,
8,
3,
7,
8,
4,
5,
9,
4,
8,
12,
5,
10,
5,
8,
7,
4,
5,
8,
8,
7,
7,
7,
3,
5,
10,
6,
5,
5,
6,
4,
6,
2,
6,
5,
4,
6,
4,
4,
8,
7,
5,
7,
4,
1,
4,
7,
5,
6,
1,
0,
5,
2,
8,
6,
3,
4,
6,
5,
2,
5,
4,
2,
5,
6,
5,
3,
7,
5,
3,
2,
3,
3,
1,
1,
3,
5,
1,
0,
7,
3,
2,
2,
7,
3,
1,
4,
3,
5,
3,
0,
6,
3,
2,
1,
1,
7,
1,
2,
6,
0,
2,
3,
4,
4,
#ENDOFDATA   :