File: NeXLSpectrum/HyperSpectra/PTX/Spectrum[3].msa
#FORMAT      : EMSA/MAS Spectral Data File
#VERSION     : 1.0
#TITLE       : Sum[det=3]
#DATE        : 31-DEC-1969
#TIME        : 07:00
#OWNER       : Unknown
#NPOINTS     : 2048
#NCOLUMNS    : 1
#XUNITS      : eV
#YUNITS      : counts
#DATATYPE    : Y
#XPERCHAN    : 10
#OFFSET      : 0
#SIGNALTYPE  : EDS
#LIVETIME    : 0
#REALTIME    : 0
#CHOFFSET    : 0.0
#XLABEL      : Energy (eV)
#YLABEL      : Counts
##SPECIMEN   : Sum[det=3]
#SPECTRUM    :
0,
0,
1,
0,
0,
0,
3,
7,
40,
320,
1818,
9230,
27973,
46504,
42288,
20968,
5857,
1272,
467,
363,
369,
464,
857,
1940,
4375,
7771,
8778,
6236,
2997,
1250,
982,
966,
1004,
1344,
2170,
2704,
2204,
1423,
825,
618,
581,
506,
516,
584,
609,
720,
855,
909,
852,
907,
1064,
1403,
1469,
1370,
1112,
901,
823,
843,
820,
860,
862,
999,
1016,
951,
1039,
969,
980,
994,
981,
988,
993,
998,
1081,
1139,
1111,
1167,
1149,
1100,
999,
1044,
1026,
995,
1033,
1062,
1222,
1517,
1753,
1956,
1756,
1482,
1177,
1127,
1062,
1008,
1024,
940,
975,
1012,
962,
1078,
1129,
1102,
1049,
987,
947,
953,
950,
904,
934,
948,
984,
1113,
1422,
1847,
2328,
2815,
2735,
2277,
1724,
1185,
1018,
889,
923,
958,
964,
860,
895,
837,
797,
864,
858,
861,
827,
815,
782,
737,
823,
714,
769,
763,
686,
736,
748,
696,
744,
729,
649,
681,
714,
706,
678,
642,
694,
662,
690,
628,
657,
668,
591,
634,
624,
585,
636,
653,
619,
652,
651,
597,
619,
590,
616,
580,
587,
587,
586,
541,
550,
557,
535,
562,
589,
595,
568,
552,
563,
596,
555,
526,
546,
568,
511,
490,
490,
520,
507,
497,
469,
484,
492,
459,
478,
503,
432,
492,
440,
460,
424,
460,
434,
435,
431,
402,
421,
401,
418,
440,
436,
432,
440,
462,
465,
489,
544,
530,
541,
487,
452,
445,
383,
421,
421,
413,
452,
414,
416,
440,
381,
445,
382,
393,
452,
439,
408,
413,
400,
400,
381,
392,
370,
367,
364,
327,
339,
341,
343,
312,
357,
392,
343,
352,
341,
313,
360,
348,
344,
320,
317,
300,
303,
320,
320,
297,
306,
301,
314,
341,
328,
293,
348,
301,
290,
275,
291,
296,
294,
297,
283,
329,
295,
289,
292,
292,
284,
308,
286,
296,
291,
300,
250,
282,
224,
285,
274,
268,
266,
269,
253,
260,
259,
275,
317,
330,
451,
630,
1058,
1602,
2682,
3737,
5134,
6126,
6355,
5882,
4897,
3766,
2522,
1641,
976,
579,
387,
309,
302,
256,
273,
290,
255,
237,
244,
231,
252,
216,
223,
243,
212,
284,
233,
267,
305,
382,
477,
535,
754,
832,
927,
1026,
903,
753,
624,
448,
370,
300,
233,
218,
205,
195,
204,
212,
164,
213,
176,
164,
183,
165,
209,
199,
189,
169,
190,
166,
155,
167,
176,
172,
184,
165,
154,
170,
187,
170,
174,
146,
161,
176,
176,
164,
186,
202,
193,
195,
231,
266,
300,
307,
296,
297,
285,
239,
222,
184,
158,
168,
167,
145,
146,
159,
126,
167,
145,
123,
147,
139,
151,
142,
154,
139,
122,
137,
159,
143,
131,
139,
135,
151,
144,
147,
149,
123,
177,
156,
122,
131,
146,
125,
175,
136,
156,
137,
140,
172,
160,
138,
142,
144,
105,
137,
117,
114,
126,
138,
118,
108,
124,
121,
107,
132,
131,
117,
120,
107,
122,
128,
114,
134,
114,
116,
100,
122,
127,
111,
110,
106,
109,
106,
118,
119,
114,
111,
129,
114,
116,
123,
120,
116,
110,
97,
101,
97,
97,
114,
102,
108,
122,
103,
119,
107,
87,
102,
107,
91,
101,
87,
98,
95,
96,
86,
86,
97,
93,
85,
102,
91,
101,
102,
94,
83,
92,
93,
103,
96,
102,
75,
91,
95,
108,
88,
96,
103,
103,
77,
76,
92,
101,
74,
93,
85,
82,
95,
80,
88,
76,
75,
90,
70,
65,
78,
74,
66,
66,
87,
73,
72,
77,
81,
62,
87,
81,
65,
85,
72,
89,
80,
76,
74,
56,
69,
67,
68,
76,
74,
68,
75,
61,
67,
87,
72,
64,
56,
81,
59,
70,
79,
71,
69,
68,
65,
68,
63,
61,
63,
65,
64,
64,
59,
63,
62,
68,
63,
53,
62,
51,
57,
54,
51,
67,
58,
63,
84,
57,
67,
81,
62,
70,
53,
68,
61,
58,
55,
77,
72,
55,
56,
78,
70,
56,
52,
62,
61,
54,
56,
69,
65,
60,
73,
82,
51,
65,
52,
50,
41,
45,
61,
42,
57,
50,
50,
48,
58,
61,
55,
56,
48,
45,
46,
56,
51,
59,
56,
37,
48,
38,
44,
44,
45,
50,
56,
48,
51,
44,
60,
48,
39,
51,
49,
47,
38,
34,
43,
33,
31,
39,
36,
32,
46,
42,
49,
39,
40,
37,
32,
37,
33,
44,
40,
32,
33,
45,
45,
32,
41,
39,
40,
37,
43,
42,
34,
39,
35,
45,
30,
34,
37,
38,
34,
30,
35,
27,
37,
32,
40,
38,
30,
42,
40,
37,
36,
51,
38,
25,
38,
36,
31,
26,
27,
28,
28,
26,
30,
28,
26,
44,
34,
32,
27,
29,
25,
33,
26,
35,
34,
38,
29,
22,
27,
25,
19,
22,
24,
30,
39,
28,
23,
36,
19,
30,
20,
18,
27,
24,
33,
28,
38,
22,
27,
26,
15,
31,
27,
31,
27,
23,
11,
23,
23,
20,
23,
18,
23,
28,
22,
18,
25,
26,
22,
30,
22,
24,
21,
16,
25,
22,
24,
22,
19,
20,
29,
34,
13,
19,
19,
13,
18,
22,
16,
15,
15,
20,
16,
16,
23,
26,
18,
14,
14,
23,
17,
23,
22,
22,
16,
14,
20,
17,
15,
16,
16,
13,
12,
10,
12,
20,
13,
11,
16,
9,
22,
9,
22,
12,
12,
14,
17,
15,
19,
12,
20,
7,
15,
9,
10,
11,
20,
19,
15,
20,
24,
7,
11,
20,
8,
14,
13,
21,
15,
15,
16,
14,
18,
12,
11,
11,
9,
11,
10,
11,
19,
12,
17,
13,
16,
17,
9,
7,
14,
11,
14,
15,
8,
7,
13,
16,
10,
11,
9,
15,
9,
16,
6,
6,
9,
9,
7,
12,
3,
9,
16,
13,
8,
13,
11,
18,
8,
10,
8,
8,
8,
7,
10,
8,
8,
13,
11,
5,
12,
12,
6,
9,
8,
10,
6,
8,
5,
4,
10,
7,
10,
8,
8,
9,
10,
5,
8,
7,
11,
13,
4,
7,
5,
4,
7,
6,
7,
10,
7,
6,
4,
9,
8,
4,
3,
5,
9,
9,
4,
10,
3,
6,
2,
5,
3,
4,
7,
4,
5,
6,
4,
9,
5,
6,
7,
7,
6,
5,
5,
6,
6,
2,
5,
2,
8,
2,
4,
5,
4,
3,
4,
5,
4,
9,
5,
4,
9,
0,
4,
5,
4,
3,
#ENDOFDATA   :