File: NeXLSpectrum/HyperSpectra/PTX/Spectrum[0].msa
#FORMAT      : EMSA/MAS Spectral Data File
#VERSION     : 1.0
#TITLE       : Sum[det=0]
#DATE        : 31-DEC-1969
#TIME        : 07:00
#OWNER       : Unknown
#NPOINTS     : 2048
#NCOLUMNS    : 1
#XUNITS      : eV
#YUNITS      : counts
#DATATYPE    : Y
#XPERCHAN    : 10
#OFFSET      : 0
#SIGNALTYPE  : EDS
#LIVETIME    : 0
#REALTIME    : 0
#CHOFFSET    : 0.0
#XLABEL      : Energy (eV)
#YLABEL      : Counts
##SPECIMEN   : Sum[det=0]
#SPECTRUM    :
11,
8,
4,
1,
1,
0,
5,
12,
62,
375,
2291,
11032,
31674,
51059,
44363,
21166,
5817,
1215,
449,
361,
389,
474,
761,
1701,
3891,
6856,
7584,
5408,
2563,
1090,
842,
800,
923,
1202,
1792,
2329,
1862,
1289,
784,
605,
535,
520,
504,
514,
538,
611,
772,
797,
729,
873,
1085,
1371,
1470,
1246,
1029,
862,
790,
785,
798,
815,
835,
945,
1008,
1008,
991,
984,
1010,
935,
1012,
1000,
1016,
994,
1028,
1122,
1129,
1101,
1060,
1044,
1023,
981,
973,
1013,
973,
1035,
1162,
1357,
1591,
1643,
1466,
1350,
1151,
1061,
1025,
976,
944,
977,
902,
930,
1044,
1121,
1110,
1114,
1063,
1055,
893,
952,
934,
956,
926,
907,
1024,
1092,
1397,
1796,
2502,
2903,
2654,
2205,
1629,
1218,
951,
973,
968,
986,
896,
925,
832,
829,
842,
878,
812,
848,
805,
770,
751,
789,
750,
735,
731,
763,
722,
697,
708,
688,
731,
686,
639,
694,
629,
678,
642,
644,
666,
679,
668,
659,
664,
678,
613,
626,
632,
611,
639,
649,
646,
614,
622,
599,
610,
579,
583,
605,
569,
634,
613,
548,
565,
546,
618,
565,
602,
548,
534,
561,
593,
591,
531,
562,
530,
507,
479,
538,
479,
542,
529,
527,
498,
535,
490,
505,
471,
459,
499,
431,
472,
486,
502,
439,
438,
464,
407,
422,
399,
460,
456,
422,
436,
451,
422,
439,
431,
477,
510,
522,
577,
473,
492,
453,
460,
443,
395,
422,
395,
385,
402,
385,
393,
356,
402,
410,
399,
443,
427,
404,
358,
396,
387,
395,
386,
348,
338,
380,
361,
350,
344,
354,
363,
361,
354,
356,
375,
335,
330,
303,
326,
351,
297,
303,
290,
296,
318,
313,
308,
314,
335,
320,
278,
316,
319,
280,
304,
302,
295,
309,
258,
303,
313,
267,
295,
311,
281,
301,
288,
288,
295,
309,
272,
295,
285,
294,
278,
275,
269,
272,
287,
266,
289,
285,
245,
296,
272,
331,
423,
656,
1070,
1770,
2818,
4032,
5330,
6134,
6497,
5899,
4846,
3617,
2393,
1546,
912,
557,
430,
323,
295,
297,
252,
293,
282,
243,
237,
264,
227,
225,
233,
262,
245,
259,
253,
275,
300,
387,
477,
611,
844,
863,
964,
958,
853,
751,
633,
478,
357,
284,
237,
202,
192,
178,
215,
196,
217,
192,
182,
189,
190,
186,
167,
167,
193,
210,
191,
168,
173,
178,
169,
153,
168,
171,
153,
174,
160,
182,
168,
169,
174,
190,
173,
134,
173,
184,
184,
213,
259,
257,
288,
297,
340,
276,
270,
243,
221,
200,
168,
160,
167,
162,
161,
152,
157,
136,
152,
137,
142,
154,
149,
151,
138,
156,
150,
152,
148,
149,
177,
155,
152,
136,
168,
140,
133,
161,
132,
141,
147,
133,
147,
150,
175,
144,
162,
177,
177,
148,
123,
138,
107,
130,
146,
120,
126,
120,
109,
135,
125,
130,
125,
107,
123,
134,
138,
110,
128,
116,
121,
105,
140,
107,
121,
123,
117,
119,
109,
106,
132,
126,
90,
105,
145,
137,
121,
111,
103,
104,
125,
107,
101,
116,
106,
116,
105,
98,
117,
99,
99,
108,
100,
105,
109,
103,
112,
92,
93,
122,
92,
106,
111,
112,
94,
91,
97,
103,
85,
94,
95,
99,
95,
92,
97,
89,
101,
105,
106,
92,
103,
102,
96,
88,
87,
94,
70,
80,
92,
89,
104,
105,
96,
89,
89,
76,
96,
94,
83,
77,
86,
93,
96,
100,
76,
70,
88,
87,
88,
76,
85,
86,
79,
73,
72,
81,
82,
78,
83,
70,
66,
77,
80,
56,
74,
86,
80,
83,
82,
64,
67,
75,
73,
56,
70,
79,
81,
73,
64,
71,
71,
67,
72,
72,
70,
67,
61,
95,
63,
80,
65,
72,
67,
68,
65,
70,
64,
62,
63,
64,
59,
63,
62,
65,
64,
65,
68,
68,
49,
70,
59,
57,
55,
50,
52,
58,
52,
45,
73,
61,
72,
77,
54,
55,
59,
53,
59,
65,
56,
63,
61,
76,
63,
50,
64,
60,
58,
51,
46,
54,
59,
49,
59,
46,
65,
66,
46,
56,
49,
55,
57,
48,
52,
52,
51,
38,
55,
54,
45,
51,
52,
53,
48,
53,
50,
56,
52,
45,
42,
36,
46,
44,
52,
46,
42,
44,
38,
49,
56,
44,
28,
38,
40,
43,
44,
37,
45,
40,
33,
43,
44,
55,
41,
53,
35,
43,
31,
38,
45,
34,
33,
48,
44,
28,
32,
27,
38,
37,
38,
40,
30,
48,
45,
36,
29,
39,
36,
37,
38,
39,
42,
37,
31,
39,
31,
31,
36,
25,
42,
32,
29,
34,
38,
35,
40,
39,
29,
29,
27,
24,
26,
33,
30,
33,
26,
21,
36,
30,
36,
27,
28,
33,
38,
31,
22,
24,
23,
31,
30,
33,
32,
24,
24,
25,
19,
26,
26,
25,
29,
32,
20,
23,
25,
28,
23,
31,
24,
21,
30,
25,
21,
32,
27,
35,
30,
17,
30,
23,
27,
23,
17,
26,
30,
21,
23,
25,
22,
21,
24,
23,
24,
21,
29,
20,
16,
17,
16,
24,
18,
17,
29,
23,
17,
16,
13,
17,
17,
15,
18,
21,
21,
16,
18,
20,
18,
21,
11,
13,
16,
24,
28,
19,
17,
11,
20,
16,
18,
17,
20,
18,
15,
15,
23,
9,
11,
17,
7,
10,
18,
19,
21,
17,
26,
12,
12,
17,
16,
13,
13,
18,
23,
19,
18,
21,
21,
16,
13,
16,
16,
16,
17,
18,
20,
18,
11,
14,
15,
10,
13,
17,
14,
15,
22,
21,
8,
16,
10,
9,
11,
18,
17,
8,
15,
8,
12,
17,
12,
15,
19,
13,
14,
7,
11,
17,
7,
16,
7,
10,
11,
7,
5,
10,
11,
13,
11,
9,
12,
11,
10,
11,
9,
11,
12,
19,
9,
6,
10,
11,
8,
9,
14,
8,
14,
6,
12,
13,
12,
12,
11,
10,
15,
7,
9,
14,
8,
12,
9,
5,
7,
3,
5,
5,
8,
6,
12,
7,
6,
12,
8,
7,
8,
6,
14,
8,
5,
8,
6,
7,
8,
12,
6,
6,
5,
12,
11,
13,
9,
9,
6,
3,
8,
4,
8,
10,
10,
6,
5,
12,
10,
12,
7,
6,
5,
6,
2,
4,
7,
4,
8,
4,
3,
4,
5,
9,
8,
11,
10,
3,
4,
7,
6,
5,
4,
4,
5,
4,
5,
#ENDOFDATA   :