File: NeXLSpectrum/HyperSpectra/PTX/Spectrum[2].msa
#FORMAT      : EMSA/MAS Spectral Data File
#VERSION     : 1.0
#TITLE       : Sum[det=2]
#DATE        : 31-DEC-1969
#TIME        : 07:00
#OWNER       : Unknown
#NPOINTS     : 2048
#NCOLUMNS    : 1
#XUNITS      : eV
#YUNITS      : counts
#DATATYPE    : Y
#XPERCHAN    : 10
#OFFSET      : 0
#SIGNALTYPE  : EDS
#LIVETIME    : 0
#REALTIME    : 0
#CHOFFSET    : 0.0
#XLABEL      : Energy (eV)
#YLABEL      : Counts
##SPECIMEN   : Sum[det=2]
#SPECTRUM    :
0,
0,
0,
0,
0,
0,
0,
4,
19,
83,
690,
5361,
24002,
49973,
44684,
17047,
3282,
693,
448,
362,
367,
401,
584,
1206,
3309,
6736,
8414,
5508,
2201,
959,
775,
752,
702,
1016,
1701,
2199,
1835,
1138,
665,
537,
487,
485,
450,
505,
503,
630,
691,
707,
722,
736,
885,
1316,
1430,
1287,
937,
748,
705,
681,
714,
727,
778,
803,
867,
896,
885,
890,
823,
863,
903,
821,
909,
900,
866,
934,
1011,
1033,
981,
950,
919,
913,
872,
875,
867,
905,
1042,
1302,
1505,
1616,
1479,
1197,
1084,
960,
948,
879,
827,
808,
835,
864,
909,
982,
1051,
990,
964,
859,
855,
853,
815,
751,
775,
806,
878,
877,
1109,
1591,
2112,
2503,
2520,
1990,
1485,
984,
824,
814,
814,
804,
859,
757,
748,
740,
754,
763,
760,
693,
738,
667,
697,
694,
667,
673,
665,
619,
652,
665,
636,
646,
556,
586,
599,
611,
586,
584,
631,
604,
561,
560,
583,
587,
558,
531,
546,
521,
568,
563,
555,
533,
539,
570,
604,
565,
499,
526,
517,
487,
505,
491,
509,
481,
501,
497,
509,
489,
505,
439,
503,
512,
495,
522,
460,
437,
479,
460,
434,
422,
447,
469,
428,
416,
458,
458,
411,
426,
417,
421,
429,
393,
373,
393,
413,
427,
409,
406,
391,
365,
342,
369,
354,
401,
375,
393,
436,
385,
417,
428,
435,
498,
467,
454,
417,
394,
381,
356,
397,
373,
345,
332,
356,
355,
357,
351,
350,
353,
371,
383,
357,
349,
389,
360,
325,
311,
311,
305,
293,
287,
309,
333,
278,
309,
306,
305,
322,
292,
299,
310,
294,
291,
301,
287,
304,
281,
278,
291,
295,
270,
269,
288,
277,
275,
269,
258,
274,
281,
251,
252,
264,
257,
251,
232,
249,
271,
262,
224,
237,
266,
270,
252,
249,
252,
244,
252,
223,
260,
243,
233,
260,
258,
242,
224,
235,
223,
257,
257,
268,
269,
335,
505,
791,
1319,
2088,
3265,
4287,
5277,
5708,
5498,
4581,
3589,
2440,
1497,
953,
513,
362,
293,
275,
235,
245,
235,
222,
234,
196,
233,
189,
213,
213,
207,
205,
222,
218,
250,
238,
317,
375,
463,
618,
745,
820,
872,
840,
750,
629,
470,
351,
273,
208,
193,
193,
177,
156,
152,
161,
184,
188,
166,
178,
163,
172,
191,
153,
162,
173,
167,
183,
149,
142,
155,
140,
143,
160,
156,
164,
141,
144,
152,
131,
152,
137,
134,
142,
139,
148,
175,
211,
211,
250,
269,
255,
255,
247,
211,
197,
168,
163,
149,
142,
140,
124,
135,
135,
145,
127,
126,
149,
116,
131,
110,
111,
116,
116,
125,
116,
119,
137,
114,
127,
125,
173,
141,
114,
107,
112,
96,
124,
109,
113,
130,
143,
117,
138,
135,
135,
132,
114,
143,
107,
113,
127,
108,
125,
92,
117,
126,
99,
84,
107,
95,
114,
106,
117,
117,
129,
113,
115,
101,
111,
114,
113,
91,
102,
110,
117,
98,
92,
106,
117,
89,
104,
88,
103,
93,
80,
90,
101,
69,
80,
88,
98,
100,
86,
114,
86,
112,
123,
101,
103,
104,
89,
75,
97,
110,
97,
86,
78,
88,
88,
104,
96,
79,
73,
102,
84,
86,
82,
76,
72,
79,
80,
89,
80,
109,
82,
91,
82,
84,
96,
94,
83,
84,
78,
74,
89,
82,
81,
85,
69,
67,
87,
86,
80,
75,
79,
67,
72,
77,
71,
75,
66,
76,
53,
68,
74,
61,
78,
75,
65,
69,
53,
49,
69,
70,
65,
71,
63,
66,
79,
75,
87,
65,
64,
76,
69,
73,
70,
82,
57,
59,
56,
73,
56,
74,
67,
75,
63,
53,
67,
64,
69,
69,
63,
52,
60,
72,
41,
56,
65,
66,
68,
49,
64,
57,
57,
54,
51,
47,
59,
61,
45,
62,
64,
57,
70,
57,
68,
54,
61,
44,
52,
62,
61,
57,
68,
59,
54,
58,
54,
54,
57,
46,
49,
51,
53,
57,
40,
59,
48,
47,
54,
54,
47,
51,
46,
50,
45,
54,
57,
45,
53,
44,
58,
40,
62,
49,
36,
42,
45,
36,
43,
47,
36,
39,
41,
50,
44,
47,
28,
36,
37,
38,
46,
38,
47,
44,
42,
46,
35,
43,
49,
40,
27,
47,
38,
41,
32,
31,
46,
33,
36,
37,
44,
25,
40,
26,
36,
35,
42,
40,
30,
42,
30,
26,
38,
44,
27,
32,
37,
42,
43,
25,
36,
27,
33,
36,
30,
40,
35,
33,
33,
27,
37,
34,
34,
33,
32,
29,
34,
31,
31,
32,
30,
31,
25,
33,
29,
32,
31,
40,
26,
23,
25,
32,
27,
30,
24,
23,
19,
39,
39,
26,
28,
28,
30,
23,
24,
25,
30,
30,
24,
27,
16,
23,
25,
21,
17,
20,
28,
18,
23,
21,
27,
32,
29,
24,
13,
28,
18,
22,
24,
26,
22,
19,
17,
19,
23,
11,
25,
17,
13,
22,
26,
27,
20,
28,
27,
29,
19,
20,
19,
19,
22,
11,
13,
13,
14,
15,
23,
23,
19,
9,
19,
17,
12,
14,
9,
24,
23,
15,
20,
18,
13,
21,
24,
11,
13,
14,
20,
11,
16,
10,
20,
12,
17,
17,
21,
15,
18,
15,
21,
5,
19,
16,
23,
10,
14,
19,
12,
17,
10,
16,
11,
12,
17,
16,
24,
17,
13,
9,
21,
19,
19,
9,
11,
15,
12,
19,
24,
14,
12,
14,
12,
13,
18,
14,
9,
18,
11,
6,
8,
10,
15,
6,
16,
6,
15,
5,
19,
14,
10,
17,
9,
17,
8,
14,
10,
7,
11,
13,
7,
9,
8,
13,
11,
10,
8,
14,
9,
14,
10,
3,
6,
4,
5,
7,
8,
9,
11,
10,
7,
4,
6,
13,
15,
6,
9,
7,
8,
6,
10,
5,
5,
9,
5,
9,
10,
8,
10,
12,
8,
6,
13,
6,
6,
7,
4,
5,
4,
8,
6,
8,
2,
2,
13,
4,
7,
10,
9,
6,
5,
5,
11,
6,
4,
6,
9,
3,
3,
6,
6,
12,
10,
5,
10,
8,
4,
7,
3,
6,
6,
12,
4,
7,
7,
4,
4,
8,
3,
7,
6,
4,
8,
7,
5,
3,
2,
3,
5,
3,
7,
3,
2,
5,
7,
3,
4,
4,
8,
2,
6,
5,
5,
6,
6,
5,
4,
3,
4,
3,
8,
2,
3,
#ENDOFDATA   :