File: NeXLSpectrum/HyperSpectra/PTX/Ti std.msa
#FORMAT      : EMSA/MAS Spectral Data File
#VERSION     : 1.0
#TITLE       : Ti std
#DATE        : 15-MAY-2018
#TIME        : 11:27
#OWNER       : Unknown
#NPOINTS     : 4096
#NCOLUMNS    : 1
#XUNITS      : eV
#YUNITS      : counts
#DATATYPE    : Y
#XPERCHAN    : 9.99856
#OFFSET      : 1.63032
#BEAMKV      : 25
#SIGNALTYPE  : EDS
#ELEVANGLE   : 35
#AZIMANGLE   : 0
#LIVETIME    : 1171.82
#REALTIME    : 1687.44
#PROBECUR    : 0.94651
#TDEADLYR    : 0
#TACTLYR     : 0.045
#TALWIND     : 0.003
#CHOFFSET    : 0.0
#XLABEL      : Energy (eV)
#YLABEL      : Counts
#EDSDET      : SDUTW
##SPECIMEN   : Ti std
##D2STDCMP   : Ti,(Ti:100.0),5.0
##DET_HASH   : 97086dfe-e5c2-9c77-3984-1d0b14bbbf41
##CALIB_HASH : 1a36e884-c26d-3547-51b1-d0bb2efdf95a
##WORKING    : 16.99 mm
##SAMPLE     : <BulkSample id="1">\n<mOrientation id="2">\n<double>0.0</double>\n<double>0.0</double>\n<double>-1.0</double>\n</mOrientation>\n</BulkSample>
#SPECTRUM    :
28,
32,
27,
7,
10,
93,
625,
2806,
9856,
17089,
14501,
29400,
99254,
162663,
149148,
124594,
57589,
32187,
21719,
9235,
6265,
6585,
7806,
8661,
9191,
9154,
9766,
10740,
11585,
12603,
13345,
13981,
15029,
15866,
16969,
17850,
19193,
20337,
21117,
21667,
22887,
23975,
25206,
25899,
26894,
27308,
28231,
28584,
31203,
33477,
34619,
33005,
31464,
31251,
32079,
32766,
34162,
36298,
38239,
37851,
37777,
36798,
36089,
35106,
35968,
35756,
36654,
37508,
37681,
37507,
37646,
37742,
38539,
38486,
38339,
38448,
39069,
38481,
39110,
38506,
38543,
38526,
38678,
38565,
38622,
38497,
38592,
38509,
39645,
41213,
46582,
57555,
66226,
61915,
50153,
41743,
37960,
36980,
36876,
36764,
37011,
36507,
36390,
36418,
36880,
37362,
38013,
38054,
36120,
35222,
34879,
34818,
34047,
34364,
33757,
33701,
33614,
33529,
32953,
33288,
33094,
33459,
33206,
32840,
33005,
32961,
32810,
32973,
32817,
32808,
32701,
32239,
32131,
31423,
30802,
30094,
29921,
29996,
30135,
29975,
30813,
31668,
33459,
36876,
43637,
63993,
149245,
457822,
1239348,
2475328,
3460712,
3370477,
2286783,
1093818,
387080,
118521,
47246,
33675,
33752,
38547,
53321,
96700,
191584,
330819,
441749,
433843,
312153,
168259,
72429,
30490,
17037,
13857,
13046,
12844,
12795,
12938,
12880,
13234,
13465,
13705,
13813,
13744,
13433,
13121,
13138,
13074,
13082,
12930,
12840,
13006,
12809,
13053,
12907,
12845,
12832,
12842,
12983,
13009,
13059,
12856,
12741,
12824,
12734,
12742,
12562,
12576,
12484,
12423,
12535,
12554,
12828,
13306,
13597,
13882,
13470,
13409,
12803,
12281,
12236,
12186,
12198,
12211,
12024,
11874,
11736,
11983,
11863,
11749,
11669,
11643,
11787,
11803,
11738,
11865,
11587,
11588,
11326,
11243,
11389,
11365,
11467,
11385,
11387,
11228,
11003,
11127,
10901,
10921,
11153,
11129,
11087,
10940,
10772,
10752,
10638,
10499,
10481,
10259,
10287,
10336,
10280,
10032,
10016,
9976,
9970,
10019,
10017,
9896,
9958,
9712,
9692,
9717,
9699,
9722,
9647,
9656,
9632,
9246,
9502,
9395,
9291,
9305,
9422,
9075,
8930,
9253,
9094,
8965,
9070,
9212,
8941,
8723,
8888,
8757,
8961,
9007,
9440,
10996,
12858,
15554,
17686,
18790,
17688,
15213,
12433,
10267,
9228,
8495,
8195,
8406,
8449,
8713,
9157,
9643,
10226,
10243,
9997,
9467,
8464,
8146,
7849,
7544,
7425,
7417,
7385,
7299,
7391,
7314,
7380,
7320,
7244,
7215,
7192,
7151,
6947,
6944,
6979,
6936,
6933,
6916,
6608,
6722,
6607,
6602,
6766,
6590,
6567,
6541,
6818,
6701,
6784,
6703,
6560,
6667,
6494,
6310,
6279,
6065,
6114,
6112,
6164,
5951,
5945,
5964,
5837,
5917,
5837,
5777,
5743,
5771,
5705,
5709,
5589,
5530,
5624,
5468,
5433,
5282,
5447,
5379,
5518,
5398,
5216,
5269,
5363,
5298,
5126,
5045,
5205,
4954,
5037,
5177,
4893,
4862,
4891,
4791,
4793,
4792,
4726,
4700,
4722,
4709,
4712,
4580,
4668,
4502,
4402,
4459,
4450,
4363,
4364,
4417,
4467,
4372,
4244,
4256,
4294,
4397,
4334,
4596,
4409,
4328,
4289,
4189,
4216,
4055,
4072,
3938,
3854,
3825,
3804,
3811,
3792,
3804,
3730,
3675,
3506,
3670,
3566,
3538,
3547,
3558,
3488,
3564,
3523,
3503,
3421,
3428,
3435,
3373,
3189,
3277,
3223,
3177,
3131,
3208,
3221,
3132,
3127,
3115,
3102,
3007,
3077,
3023,
3005,
2973,
2827,
2909,
2873,
2788,
2819,
2820,
2884,
2801,
2833,
2568,
2644,
2668,
2680,
2656,
2698,
2562,
2536,
2518,
2430,
2481,
2415,
2445,
2405,
2474,
2467,
2376,
2455,
2386,
2400,
2315,
2330,
2301,
2272,
2211,
2242,
2179,
2181,
2284,
2131,
2135,
2057,
2158,
2108,
2137,
2033,
1975,
1983,
2014,
1955,
1929,
1945,
1936,
1921,
1856,
1910,
1879,
1865,
1865,
1846,
1829,
1826,
1782,
1828,
1756,
1661,
1704,
1710,
1715,
1696,
1636,
1657,
1706,
1570,
1628,
1550,
1613,
1520,
1459,
1488,
1574,
1490,
1408,
1476,
1513,
1447,
1450,
1325,
1315,
1348,
1345,
1301,
1320,
1364,
1311,
1392,
1259,
1246,
1261,
1262,
1323,
1230,
1223,
1212,
1188,
1166,
1206,
1134,
1159,
1125,
1121,
1168,
1086,
1075,
1040,
1095,
1083,
1009,
1058,
1020,
999,
1053,
1084,
1044,
974,
950,
943,
963,
934,
904,
895,
891,
952,
864,
843,
863,
842,
881,
833,
808,
909,
794,
794,
809,
770,
733,
787,
775,
749,
719,
750,
742,
766,
679,
732,
733,
714,
679,
672,
690,
638,
637,
645,
620,
594,
603,
617,
598,
590,
580,
623,
587,
615,
574,
553,
554,
561,
506,
527,
539,
512,
523,
479,
527,
503,
494,
515,
496,
424,
439,
430,
467,
442,
491,
415,
440,
433,
403,
427,
425,
372,
405,
409,
398,
410,
417,
397,
389,
383,
361,
365,
353,
352,
354,
348,
302,
312,
294,
335,
291,
281,
313,
309,
286,
279,
304,
293,
264,
275,
248,
247,
265,
225,
236,
274,
223,
238,
266,
225,
227,
257,
224,
219,
220,
214,
218,
226,
198,
211,
249,
191,
182,
219,
179,
210,
183,
169,
177,
195,
180,
171,
173,
168,
156,
150,
140,
157,
173,
153,
158,
168,
135,
134,
138,
140,
131,
121,
127,
112,
116,
121,
127,
106,
110,
105,
108,
111,
96,
98,
97,
115,
97,
106,
100,
79,
103,
92,
91,
75,
74,
92,
76,
69,
83,
71,
78,
51,
59,
55,
67,
70,
67,
60,
54,
55,
70,
70,
70,
54,
48,
41,
43,
58,
55,
52,
38,
53,
42,
29,
39,
24,
35,
31,
36,
24,
26,
35,
28,
20,
26,
34,
14,
22,
25,
19,
22,
15,
20,
15,
18,
19,
15,
19,
16,
19,
13,
7,
14,
9,
5,
6,
7,
6,
8,
6,
7,
6,
6,
3,
3,
3,
1,
4,
1,
0,
1,
2,
0,
1,
0,
1,
1,
1,
2,
0,
1,
2,
1,
3,
0,
2,
3,
2,
0,
2,
0,
2,
2,
0,
3,
0,
2,
0,
0,
1,
0,
2,
2,
1,
2,
4,
2,
0,
0,
2,
1,
1,
0,
1,
0,
0,
0,
1,
1,
1,
2,
1,
1,
3,
0,
0,
1,
1,
0,
1,
0,
0,
0,
0,
1,
2,
1,
0,
0,
0,
0,
0,
0,
0,
2,
1,
0,
0,
0,
1,
1,
0,
0,
1,
1,
0,
1,
0,
0,
1,
0,
1,
1,
0,
0,
0,
0,
0,
1,
0,
0,
0,
0,
0,
0,
1,
2,
0,
1,
0,
0,
0,
0,
1,
1,
0,
0,
0,
0,
0,
1,
2,
0,
0,
0,
1,
0,
0,
0,
0,
1,
1,
0,
1,
0,
0,
0,
0,
0,
0,
0,
0,
0,
0,
0,
0,
0,
1,
0,
0,
0,
1,
0,
0,
0,
0,
0,
0,
0,
0,
0,
0,
0,
0,
0,
1,
0,
1,
0,
0,
0,
0,
0,
0,
0,
1,
0,
0,
0,
0,
0,
0,
0,
0,
0,
0,
1,
0,
0,
0,
0,
0,
0,
1,
0,
0,
1,
0,
0,
0,
0,
0,
0,
0,
0,
0,
0,
0,
0,
0,
0,
0,
0,
0,
0,
0,
0,
0,
0,
0,
0,
0,
0,
0,
0,
0,
0,
1,
0,
0,
0,
0,
0,
0,
0,
0,
0,
0,
0,
0,
0,
0,
1,
0,
0,
0,
0,
0,
0,
0,
0,
0,
0,
0,
0,
0,
0,
0,
0,
0,
1,
0,
0,
0,
0,
0,
0,
0,
0,
0,
0,
0,
0,
0,
0,
0,
0,
0,
0,
0,
1,
0,
0,
0,
0,
0,
0,
0,
0,
0,
0,
0,
0,
0,
0,
0,
0,
0,
0,
0,
0,
0,
0,
0,
0,
0,
0,
0,
0,
0,
0,
0,
0,
0,
0,
0,
0,
0,
0,
0,
0,
0,
0,
0,
0,
0,
0,
0,
1,
0,
0,
0,
0,
0,
0,
0,
0,
0,
0,
0,
0,
0,
0,
0,
0,
0,
0,
0,
0,
0,
0,
0,
0,
0,
0,
0,
0,
0,
0,
0,
0,
0,
0,
0,
2,
0,
0,
0,
0,
0,
0,
0,
0,
0,
0,
0,
0,
0,
0,
0,
0,
0,
0,
0,
0,
0,
0,
0,
0,
0,
0,
0,
0,
0,
0,
0,
0,
0,
0,
0,
0,
0,
0,
0,
0,
0,
0,
0,
0,
0,
0,
0,
0,
0,
0,
0,
0,
0,
0,
0,
0,
0,
0,
0,
0,
0,
0,
0,
0,
0,
0,
0,
0,
0,
0,
0,
0,
0,
0,
0,
0,
0,
0,
0,
0,
0,
0,
0,
0,
0,
0,
0,
0,
0,
0,
0,
0,
0,
0,
0,
0,
0,
0,
0,
0,
0,
0,
0,
0,
0,
0,
0,
0,
0,
0,
0,
0,
0,
0,
0,
0,
0,
0,
0,
0,
0,
0,
0,
0,
0,
0,
0,
0,
0,
0,
0,
0,
0,
0,
0,
0,
0,
0,
0,
0,
0,
0,
0,
0,
0,
0,
0,
0,
0,
0,
0,
0,
0,
0,
0,
0,
0,
0,
0,
0,
0,
#ENDOFDATA   :