File: NeXLSpectrum/Pyrite fragments/CuS_ChMxd_2_15kV10nA130kHz_132kHz_100s.msa
#FORMAT      : EMSA/MAS Spectral Data File
#VERSION     : 1.0
#TITLE       : Bruker Nano spectrum Acquisition
#DATE        : 23-AUG-2019
#TIME        : 09:14
#OWNER       : Bruker Nano
#NPOINTS     : 4096
#NCOLUMNS    : 1
#XUNITS      : eV
#YUNITS      : counts
#DATATYPE    : Y
#XPERCHAN    : 5.00257
#OFFSET      : -482.8305
#BEAMKV      : 15
#SIGNALTYPE  : EDS
#ELEVANGLE   : 40
#AZIMANGLE   : 45
#LIVETIME    : 100
#REALTIME    : 132.476
#PROBECUR    : 10
#TAUWIND     : 0
#TDEADLYR    : 0
#TACTLYR     : 0.045
#TALWIND     : 0.004
#CHOFFSET    : 0.0
#XLABEL      : Energy (eV)
#YLABEL      : Counts
#EDSDET      : SDUTW
##D2STDCMP   : CuS,(S:33.5369),(Cu:66.4631),4.6
##DET_HASH   : c6370f9e-cc72-7559-f57e-203d75c8942b
##CALIB_HASH : fcf71094-1a10-2882-685e-00197fff5925
##SAMPLE     : <BulkSample id="1">\n<mOrientation id="2">\n<double>0.0</double>\n<double>0.0</double>\n<double>-1.0</double>\n</mOrientation>\n</BulkSample>
#SPECTRUM    :
0,
0,
0,
0,
0,
0,
0,
0,
0,
0,
0,
0,
0,
0,
0,
0,
0,
0,
4,
22,
21,
38,
52,
40,
58,
57,
52,
370,
4286,
30961,
126447,
280655,
339141,
225034,
81668,
16876,
2253,
333,
92,
59,
174,
1463,
1532,
1327,
1061,
973,
1073,
1694,
3059,
5177,
6928,
6631,
4414,
2276,
1255,
1051,
1115,
1242,
1342,
1414,
1428,
1622,
1857,
2101,
2683,
3108,
3701,
4007,
3672,
3400,
3310,
3153,
3566,
3638,
3830,
4106,
4439,
4627,
5133,
5470,
5782,
6666,
7976,
10999,
15865,
22126,
26384,
26307,
23253,
22535,
33601,
67875,
130384,
201696,
242424,
225631,
162178,
91834,
42613,
18631,
9299,
6193,
5015,
4287,
3783,
3491,
3432,
3297,
3317,
3331,
3395,
3441,
3384,
3456,
3476,
3492,
3562,
3662,
3648,
3717,
3678,
3808,
3802,
3950,
3945,
3835,
3983,
3961,
4104,
4103,
4131,
4117,
4152,
4176,
4206,
4021,
4114,
4112,
3936,
4100,
4110,
4054,
4030,
4160,
4238,
4443,
4694,
4794,
4734,
4795,
4760,
4493,
4422,
4355,
4442,
4389,
4398,
4397,
4261,
4273,
4286,
4234,
4312,
4307,
4328,
4390,
4427,
4496,
4475,
4566,
4412,
4343,
4309,
4368,
4347,
4324,
4620,
4883,
5917,
8271,
14172,
26567,
48341,
81937,
120548,
153948,
167051,
156375,
124387,
85267,
51448,
28472,
16343,
12562,
12236,
13887,
15024,
14892,
13408,
10699,
8191,
6038,
4666,
3818,
3372,
3193,
3121,
3074,
3082,
3048,
3008,
3045,
3005,
2973,
3151,
2983,
2981,
2983,
3021,
2954,
2937,
2904,
2955,
2898,
3011,
2983,
2960,
3016,
3031,
3207,
3191,
3331,
3216,
3216,
3101,
3008,
2896,
2847,
2811,
2880,
2776,
2782,
2923,
2848,
2825,
2831,
2739,
2764,
2746,
2753,
2642,
2674,
2673,
2616,
2647,
2559,
2554,
2582,
2555,
2561,
2491,
2518,
2491,
2457,
2520,
2540,
2506,
2474,
2474,
2592,
2515,
2428,
2464,
2386,
2425,
2476,
2449,
2497,
2439,
2396,
2412,
2420,
2332,
2402,
2409,
2406,
2329,
2280,
2285,
2247,
2278,
2200,
2289,
2275,
2236,
2223,
2218,
2206,
2181,
2282,
2183,
2184,
2179,
2118,
2108,
2165,
2022,
2090,
2025,
2060,
2028,
2110,
2024,
2063,
2032,
2039,
2005,
1996,
2011,
1926,
1979,
2000,
1975,
1995,
1978,
1917,
1873,
1893,
1966,
1977,
1911,
1989,
1933,
1895,
1881,
1916,
1890,
1880,
1883,
1835,
1800,
1797,
1834,
1782,
1778,
1767,
1773,
1751,
1729,
1797,
1734,
1735,
1739,
1717,
1722,
1711,
1701,
1688,
1695,
1672,
1768,
1677,
1706,
1680,
1644,
1621,
1651,
1662,
1620,
1634,
1621,
1632,
1591,
1635,
1568,
1648,
1648,
1584,
1514,
1480,
1612,
1518,
1501,
1550,
1542,
1495,
1567,
1491,
1518,
1459,
1454,
1528,
1520,
1408,
1410,
1439,
1425,
1452,
1386,
1379,
1436,
1410,
1425,
1377,
1342,
1367,
1399,
1388,
1328,
1373,
1293,
1327,
1334,
1316,
1334,
1393,
1338,
1344,
1308,
1320,
1338,
1329,
1301,
1254,
1290,
1334,
1246,
1358,
1242,
1270,
1259,
1226,
1230,
1253,
1211,
1224,
1220,
1225,
1240,
1184,
1194,
1210,
1157,
1182,
1192,
1136,
1187,
1179,
1142,
1139,
1233,
1172,
1109,
1207,
1084,
1101,
1136,
1143,
1173,
1189,
1076,
1167,
1132,
1105,
1096,
1100,
1103,
1098,
1061,
1100,
1084,
1078,
1048,
1090,
995,
1023,
1039,
1022,
1051,
963,
1051,
1058,
1006,
1042,
976,
1030,
1037,
1042,
1018,
987,
996,
946,
1038,
965,
960,
992,
1021,
998,
943,
950,
986,
915,
958,
885,
968,
894,
958,
924,
915,
906,
929,
865,
861,
893,
905,
908,
797,
910,
882,
870,
899,
876,
900,
906,
902,
886,
855,
886,
856,
886,
859,
881,
901,
883,
858,
901,
821,
846,
799,
822,
809,
789,
802,
815,
821,
810,
843,
785,
784,
871,
861,
838,
841,
883,
954,
1043,
1258,
1692,
2268,
3180,
4695,
6537,
9137,
12276,
15477,
19014,
21837,
23539,
24444,
23347,
21474,
18876,
15467,
12055,
9008,
6527,
4475,
3084,
2113,
1544,
1142,
947,
802,
818,
777,
743,
674,
744,
685,
712,
673,
676,
674,
644,
695,
665,
668,
666,
588,
613,
672,
657,
627,
596,
597,
629,
659,
647,
664,
651,
719,
651,
712,
751,
789,
852,
939,
1076,
1252,
1584,
1917,
2306,
2727,
3074,
3283,
3483,
3418,
3323,
3077,
2700,
2267,
1894,
1576,
1284,
1003,
845,
760,
650,
581,
540,
571,
499,
511,
508,
480,
500,
489,
471,
483,
491,
490,
424,
498,
446,
427,
463,
489,
457,
427,
505,
468,
479,
468,
480,
441,
445,
433,
440,
424,
444,
447,
419,
449,
404,
377,
388,
433,
402,
420,
421,
396,
385,
405,
407,
398,
401,
406,
411,
407,
384,
399,
369,
401,
425,
401,
398,
399,
386,
410,
379,
402,
387,
363,
394,
354,
376,
368,
345,
385,
365,
368,
357,
348,
367,
364,
341,
368,
349,
346,
347,
378,
339,
379,
340,
346,
343,
361,
341,
334,
360,
344,
341,
339,
335,
313,
325,
335,
308,
331,
322,
322,
317,
341,
311,
330,
304,
303,
289,
317,
266,
264,
310,
297,
310,
300,
293,
303,
270,
323,
285,
303,
264,
287,
283,
271,
326,
262,
276,
287,
238,
262,
246,
253,
284,
244,
254,
257,
250,
242,
207,
233,
228,
278,
261,
260,
255,
264,
215,
250,
230,
267,
235,
241,
240,
246,
255,
256,
264,
236,
225,
226,
205,
195,
230,
231,
210,
227,
198,
186,
230,
206,
243,
196,
191,
191,
180,
204,
215,
200,
219,
190,
220,
209,
175,
192,
206,
202,
193,
205,
190,
202,
202,
174,
189,
184,
160,
193,
194,
178,
145,
192,
172,
174,
175,
171,
159,
172,
177,
155,
164,
150,
164,
143,
173,
160,
146,
145,
146,
158,
148,
143,
150,
151,
137,
145,
149,
169,
134,
131,
147,
160,
138,
130,
137,
135,
141,
127,
125,
160,
125,
121,
136,
113,
105,
134,
140,
151,
103,
103,
112,
145,
123,
123,
121,
110,
111,
108,
109,
101,
111,
123,
96,
128,
92,
94,
97,
113,
96,
102,
104,
105,
110,
93,
108,
89,
91,
95,
86,
84,
93,
90,
80,
83,
96,
95,
114,
69,
89,
90,
60,
85,
70,
80,
87,
81,
77,
67,
78,
71,
64,
78,
53,
55,
67,
62,
49,
74,
71,
72,
61,
63,
77,
64,
62,
55,
51,
46,
48,
52,
55,
43,
46,
47,
48,
46,
65,
43,
40,
56,
36,
42,
46,
50,
42,
44,
47,
31,
46,
37,
46,
42,
30,
40,
30,
35,
34,
33,
16,
34,
31,
19,
34,
24,
23,
40,
25,
20,
28,
30,
21,
17,
23,
23,
22,
17,
17,
22,
12,
16,
13,
12,
9,
13,
9,
16,
23,
9,
8,
8,
12,
11,
12,
4,
5,
7,
6,
2,
7,
5,
4,
3,
4,
5,
0,
4,
0,
0,
1,
0,
0,
2,
0,
0,
0,
0,
0,
0,
0,
0,
0,
0,
0,
0,
0,
0,
0,
0,
0,
1,
1,
0,
0,
0,
0,
0,
2,
0,
0,
0,
0,
0,
0,
0,
0,
0,
0,
0,
0,
2,
0,
0,
0,
0,
0,
0,
0,
0,
0,
0,
0,
0,
0,
0,
3,
0,
0,
3,
0,
0,
0,
0,
0,
0,
0,
5,
0,
0,
0,
0,
0,
0,
1,
0,
0,
0,
0,
0,
0,
0,
0,
0,
0,
0,
0,
0,
0,
0,
0,
0,
0,
0,
0,
0,
0,
0,
0,
1,
0,
0,
1,
0,
0,
0,
0,
0,
0,
0,
0,
0,
0,
0,
0,
0,
0,
0,
0,
0,
0,
0,
0,
0,
0,
0,
0,
0,
0,
0,
0,
0,
0,
0,
0,
0,
0,
0,
0,
0,
0,
0,
0,
0,
0,
0,
0,
0,
0,
2,
0,
0,
0,
0,
0,
0,
0,
0,
0,
0,
0,
0,
0,
0,
0,
0,
0,
0,
0,
0,
0,
0,
0,
0,
0,
0,
0,
0,
0,
0,
0,
0,
0,
0,
0,
0,
0,
0,
0,
0,
0,
0,
0,
0,
1,
0,
0,
1,
1,
0,
1,
1,
0,
1,
0,
0,
0,
0,
0,
0,
0,
0,
0,
0,
1,
0,
0,
2,
0,
0,
0,
1,
0,
0,
0,
0,
0,
0,
0,
0,
0,
0,
0,
0,
0,
1,
0,
0,
0,
0,
0,
1,
0,
0,
0,
1,
0,
0,
0,
0,
0,
2,
0,
0,
1,
0,
0,
0,
0,
0,
0,
0,
0,
0,
1,
0,
0,
0,
1,
0,
0,
0,
0,
0,
1,
1,
0,
0,
0,
0,
0,
0,
0,
0,
0,
0,
0,
0,
1,
0,
0,
0,
0,
0,
0,
0,
0,
0,
0,
0,
0,
0,
0,
0,
0,
0,
0,
0,
0,
1,
0,
0,
0,
0,
0,
0,
0,
0,
0,
0,
0,
0,
0,
0,
0,
0,
0,
0,
0,
#ENDOFDATA   :