File: NeXLSpectrum/Pyrite fragments/CuS_ChMxd_1_15kV10nA130kHz_132kHz_100s.msa
#FORMAT      : EMSA/MAS Spectral Data File
#VERSION     : 1.0
#TITLE       : Bruker Nano spectrum Acquisition
#DATE        : 23-AUG-2019
#TIME        : 09:11
#OWNER       : Bruker Nano
#NPOINTS     : 4096
#NCOLUMNS    : 1
#XUNITS      : eV
#YUNITS      : counts
#DATATYPE    : Y
#XPERCHAN    : 5.00257
#OFFSET      : -482.8305
#BEAMKV      : 15
#SIGNALTYPE  : EDS
#ELEVANGLE   : 40
#AZIMANGLE   : 45
#LIVETIME    : 100
#REALTIME    : 132.446
#PROBECUR    : 10
#TAUWIND     : 0
#TDEADLYR    : 0
#TACTLYR     : 0.045
#TALWIND     : 0.004
#CHOFFSET    : 0.0
#XLABEL      : Energy (eV)
#YLABEL      : Counts
#EDSDET      : SDUTW
##D2STDCMP   : CuS,(S:33.5369),(Cu:66.4631),4.6
##DET_HASH   : c6370f9e-cc72-7559-f57e-203d75c8942b
##CALIB_HASH : fcf71094-1a10-2882-685e-00197fff5925
##SAMPLE     : <BulkSample id="1">\n<mOrientation id="2">\n<double>0.0</double>\n<double>0.0</double>\n<double>-1.0</double>\n</mOrientation>\n</BulkSample>
#SPECTRUM    :
0,
0,
0,
0,
0,
0,
0,
0,
0,
0,
0,
0,
0,
0,
0,
0,
0,
0,
4,
17,
33,
60,
54,
54,
50,
54,
47,
365,
4327,
31257,
126736,
281044,
339098,
224661,
81704,
16690,
2233,
330,
99,
0,
206,
1531,
1478,
1387,
1090,
977,
1152,
1665,
3051,
5312,
7075,
6784,
4523,
2358,
1299,
1069,
1150,
1336,
1370,
1464,
1463,
1668,
1787,
2153,
2553,
3205,
3763,
3855,
3579,
3305,
3375,
3296,
3432,
3856,
3972,
4064,
4371,
4725,
5184,
5502,
5930,
6600,
8104,
11028,
15981,
22021,
26085,
26402,
23368,
22764,
33698,
67054,
127740,
199714,
240811,
223859,
161543,
91327,
42299,
18554,
9471,
6374,
5023,
4254,
3839,
3583,
3429,
3404,
3445,
3398,
3407,
3439,
3466,
3502,
3549,
3544,
3624,
3640,
3693,
3762,
3813,
3739,
3883,
3863,
3868,
4059,
4048,
4013,
4153,
4131,
4260,
4220,
4271,
4223,
4144,
4118,
4138,
4096,
4114,
4092,
4039,
4127,
4173,
4236,
4164,
4331,
4653,
4926,
4858,
4814,
4626,
4631,
4445,
4416,
4426,
4521,
4403,
4368,
4465,
4241,
4310,
4228,
4220,
4348,
4356,
4474,
4387,
4378,
4410,
4536,
4406,
4423,
4424,
4333,
4461,
4316,
4583,
4887,
5911,
8280,
14176,
26400,
48671,
81311,
120738,
153714,
167497,
156104,
125061,
85384,
51423,
28087,
16781,
12599,
12612,
14204,
15170,
15015,
13672,
11007,
8382,
6170,
4747,
3837,
3454,
3303,
3140,
3085,
3120,
3071,
3078,
3044,
2941,
2961,
3052,
3039,
3000,
3004,
3023,
2882,
2997,
2979,
2929,
3020,
2869,
2973,
3050,
3102,
3324,
3451,
3577,
3674,
3678,
3458,
3285,
3107,
2954,
2901,
2843,
2917,
3000,
2983,
2930,
2955,
2982,
2906,
2877,
2828,
2755,
2810,
2813,
2701,
2652,
2597,
2547,
2641,
2625,
2562,
2571,
2583,
2611,
2565,
2544,
2504,
2549,
2496,
2460,
2569,
2520,
2466,
2486,
2502,
2425,
2435,
2439,
2450,
2421,
2488,
2519,
2463,
2436,
2414,
2388,
2288,
2328,
2259,
2215,
2262,
2313,
2270,
2328,
2248,
2202,
2217,
2197,
2240,
2189,
2185,
2199,
2142,
2143,
2190,
2192,
2174,
2095,
2086,
2139,
2041,
2103,
2014,
2067,
2044,
2073,
2034,
2013,
2104,
2034,
2095,
1994,
1990,
1968,
1903,
1974,
1956,
1937,
1976,
1934,
1938,
1904,
1946,
1893,
1940,
1939,
1905,
1870,
1885,
1903,
1822,
1828,
1792,
1832,
1790,
1768,
1732,
1786,
1778,
1762,
1718,
1728,
1741,
1799,
1712,
1693,
1682,
1701,
1664,
1687,
1745,
1706,
1684,
1693,
1708,
1682,
1735,
1632,
1648,
1656,
1639,
1670,
1657,
1578,
1571,
1592,
1580,
1549,
1554,
1555,
1631,
1562,
1537,
1570,
1622,
1580,
1550,
1517,
1525,
1495,
1465,
1508,
1443,
1484,
1447,
1510,
1438,
1395,
1501,
1436,
1452,
1430,
1365,
1439,
1441,
1459,
1367,
1365,
1456,
1397,
1362,
1359,
1399,
1315,
1351,
1398,
1312,
1405,
1399,
1275,
1365,
1330,
1281,
1245,
1317,
1264,
1292,
1319,
1273,
1335,
1310,
1274,
1218,
1264,
1304,
1284,
1217,
1232,
1280,
1229,
1188,
1222,
1278,
1194,
1166,
1175,
1196,
1182,
1228,
1185,
1156,
1242,
1147,
1177,
1132,
1119,
1162,
1160,
1173,
1079,
1180,
1114,
1154,
1121,
1123,
1078,
1081,
1132,
1095,
1057,
1017,
1125,
1070,
1091,
1090,
1142,
1066,
1042,
969,
1061,
995,
1007,
1003,
1061,
994,
1012,
1061,
971,
1009,
968,
992,
938,
968,
973,
1067,
959,
1016,
974,
946,
959,
947,
925,
949,
979,
931,
906,
941,
972,
906,
913,
944,
888,
940,
892,
904,
908,
937,
884,
885,
854,
908,
897,
811,
888,
892,
885,
871,
873,
847,
871,
825,
915,
877,
876,
893,
838,
830,
806,
860,
853,
819,
826,
868,
834,
867,
828,
853,
804,
835,
808,
755,
878,
830,
872,
840,
832,
853,
921,
1120,
1232,
1657,
2195,
3269,
4613,
6805,
9228,
12145,
15492,
19120,
21849,
23305,
24201,
23119,
21726,
18894,
15296,
12151,
9055,
6477,
4399,
3033,
2066,
1510,
1140,
996,
810,
772,
756,
711,
731,
738,
740,
719,
665,
658,
693,
697,
680,
700,
712,
635,
631,
687,
658,
646,
649,
682,
658,
675,
693,
657,
650,
677,
669,
662,
716,
721,
761,
767,
902,
1160,
1274,
1607,
1967,
2275,
2676,
3034,
3317,
3492,
3472,
3300,
2993,
2633,
2339,
1927,
1502,
1237,
1000,
847,
727,
652,
583,
545,
560,
540,
520,
502,
480,
484,
518,
498,
495,
448,
475,
454,
450,
463,
482,
466,
467,
463,
478,
471,
497,
446,
464,
448,
454,
486,
443,
475,
423,
438,
411,
440,
452,
448,
411,
446,
428,
421,
411,
420,
397,
447,
399,
411,
410,
402,
419,
415,
417,
382,
404,
418,
392,
398,
382,
387,
410,
409,
363,
432,
408,
373,
376,
388,
370,
385,
380,
372,
402,
419,
398,
397,
353,
367,
374,
373,
336,
373,
358,
340,
342,
354,
357,
359,
331,
349,
321,
332,
312,
337,
318,
338,
309,
321,
304,
339,
341,
302,
304,
331,
332,
292,
318,
265,
322,
284,
284,
316,
284,
310,
306,
310,
260,
302,
298,
310,
292,
314,
271,
314,
305,
282,
298,
309,
278,
290,
296,
264,
257,
279,
260,
295,
266,
280,
254,
263,
267,
285,
251,
256,
265,
252,
247,
245,
247,
248,
213,
255,
231,
225,
255,
240,
234,
243,
264,
260,
235,
214,
222,
203,
196,
224,
234,
183,
255,
203,
228,
203,
214,
199,
204,
212,
209,
202,
207,
217,
185,
210,
216,
199,
205,
198,
198,
196,
172,
172,
232,
188,
198,
194,
209,
172,
206,
173,
185,
184,
189,
182,
198,
177,
175,
176,
189,
161,
147,
167,
153,
162,
171,
155,
145,
156,
146,
169,
164,
165,
170,
153,
160,
133,
159,
174,
177,
158,
133,
147,
148,
126,
125,
134,
124,
123,
150,
137,
116,
134,
117,
132,
134,
105,
130,
122,
121,
116,
107,
126,
133,
124,
122,
129,
130,
124,
111,
109,
133,
117,
114,
101,
126,
98,
90,
103,
118,
115,
100,
105,
123,
85,
89,
101,
101,
104,
78,
88,
110,
88,
91,
88,
93,
76,
109,
102,
83,
100,
84,
86,
95,
83,
81,
83,
85,
74,
61,
72,
86,
77,
79,
59,
69,
62,
64,
69,
73,
66,
76,
67,
66,
55,
54,
71,
57,
56,
51,
60,
41,
49,
57,
56,
64,
59,
59,
44,
49,
51,
41,
38,
40,
54,
40,
41,
45,
44,
35,
43,
32,
38,
37,
40,
42,
46,
29,
27,
37,
33,
37,
27,
33,
29,
29,
38,
33,
22,
27,
26,
25,
20,
24,
15,
19,
21,
20,
31,
15,
15,
12,
22,
23,
7,
14,
11,
19,
13,
15,
16,
19,
10,
5,
7,
13,
17,
13,
11,
7,
5,
8,
13,
9,
11,
7,
6,
0,
0,
0,
4,
4,
1,
0,
0,
1,
0,
0,
0,
1,
0,
0,
0,
0,
0,
0,
0,
1,
0,
0,
0,
0,
3,
0,
0,
0,
0,
1,
0,
0,
0,
0,
1,
0,
1,
0,
0,
0,
0,
1,
0,
0,
1,
0,
0,
0,
0,
3,
0,
0,
0,
0,
0,
0,
0,
0,
0,
0,
0,
3,
0,
0,
0,
0,
2,
0,
0,
0,
0,
0,
0,
0,
0,
0,
0,
0,
0,
0,
0,
1,
0,
0,
0,
0,
0,
0,
0,
1,
0,
2,
0,
0,
0,
0,
0,
0,
0,
0,
0,
0,
0,
0,
0,
0,
0,
2,
0,
0,
0,
0,
0,
0,
0,
0,
0,
0,
0,
0,
0,
0,
0,
0,
0,
0,
2,
0,
0,
0,
0,
0,
0,
0,
0,
0,
0,
0,
0,
1,
0,
0,
0,
0,
0,
0,
0,
0,
0,
1,
0,
0,
1,
0,
2,
0,
0,
0,
0,
1,
0,
0,
0,
0,
0,
0,
0,
0,
0,
2,
0,
0,
0,
0,
1,
0,
0,
0,
0,
0,
0,
0,
0,
0,
0,
0,
0,
0,
0,
0,
0,
0,
0,
0,
0,
0,
0,
0,
0,
1,
0,
0,
0,
0,
0,
0,
0,
0,
0,
0,
0,
0,
0,
0,
0,
0,
0,
0,
0,
1,
0,
1,
3,
0,
0,
0,
0,
3,
0,
0,
0,
0,
0,
0,
0,
0,
0,
1,
0,
0,
0,
0,
0,
0,
0,
0,
0,
0,
0,
0,
0,
0,
0,
0,
1,
0,
0,
0,
0,
0,
0,
0,
0,
0,
0,
0,
0,
0,
0,
0,
1,
0,
0,
0,
0,
0,
0,
0,
0,
0,
1,
0,
0,
0,
0,
0,
0,
0,
0,
0,
0,
0,
0,
0,
0,
1,
0,
1,
0,
0,
0,
0,
0,
0,
0,
0,
0,
0,
0,
0,
0,
0,
0,
0,
0,
0,
0,
0,
0,
0,
0,
0,
0,
0,
0,
0,
0,
0,
0,
0,
0,
0,
0,
0,
0,
#ENDOFDATA   :