File: NeXLSpectrum/Pyrite fragments/CuS_ChMxd_3_15kV10nA130kHz_132kHz_100s.msa
#FORMAT      : EMSA/MAS Spectral Data File
#VERSION     : 1.0
#TITLE       : Bruker Nano spectrum Acquisition
#DATE        : 23-AUG-2019
#TIME        : 09:17
#OWNER       : Bruker Nano
#NPOINTS     : 4096
#NCOLUMNS    : 1
#XUNITS      : eV
#YUNITS      : counts
#DATATYPE    : Y
#XPERCHAN    : 5.00257
#OFFSET      : -482.8305
#BEAMKV      : 15
#SIGNALTYPE  : EDS
#ELEVANGLE   : 40
#AZIMANGLE   : 45
#LIVETIME    : 100
#REALTIME    : 132.46
#PROBECUR    : 10
#TAUWIND     : 0
#TDEADLYR    : 0
#TACTLYR     : 0.045
#TALWIND     : 0.004
#CHOFFSET    : 0.0
#XLABEL      : Energy (eV)
#YLABEL      : Counts
#EDSDET      : SDUTW
##D2STDCMP   : CuS,(S:33.5369),(Cu:66.4631),4.6
##DET_HASH   : c6370f9e-cc72-7559-f57e-203d75c8942b
##CALIB_HASH : fcf71094-1a10-2882-685e-00197fff5925
##SAMPLE     : <BulkSample id="1">\n<mOrientation id="2">\n<double>0.0</double>\n<double>0.0</double>\n<double>-1.0</double>\n</mOrientation>\n</BulkSample>
#SPECTRUM    :
0,
0,
0,
0,
0,
0,
0,
0,
0,
0,
0,
0,
0,
0,
0,
0,
0,
2,
4,
13,
36,
47,
40,
49,
57,
56,
74,
346,
4240,
31088,
126040,
280234,
341281,
224653,
81898,
16810,
2274,
305,
108,
54,
207,
1498,
1514,
1320,
1101,
975,
1118,
1656,
3059,
5227,
6980,
6586,
4285,
2325,
1223,
1022,
1133,
1235,
1350,
1317,
1424,
1600,
1827,
2142,
2629,
3206,
3788,
3928,
3647,
3371,
3143,
3377,
3282,
3710,
4088,
4198,
4296,
4649,
4884,
5435,
5891,
6618,
8151,
10894,
16029,
21603,
26353,
26290,
23087,
22977,
34035,
68090,
129385,
201948,
242963,
226470,
161958,
91485,
42858,
18738,
9351,
6066,
5135,
4287,
3768,
3499,
3376,
3327,
3324,
3316,
3328,
3339,
3444,
3421,
3482,
3488,
3569,
3558,
3626,
3632,
3879,
3753,
3744,
3928,
3849,
3950,
4079,
4036,
4065,
4142,
4131,
4245,
4178,
4138,
4133,
4093,
4062,
4067,
4040,
4120,
3972,
4009,
4014,
4163,
4217,
4399,
4618,
4779,
4858,
4824,
4659,
4529,
4454,
4338,
4349,
4466,
4380,
4330,
4239,
4274,
4243,
4246,
4198,
4320,
4365,
4325,
4407,
4535,
4507,
4559,
4428,
4413,
4307,
4436,
4343,
4411,
4517,
4891,
5852,
8321,
14091,
26573,
48380,
81822,
120780,
153585,
166943,
156022,
124621,
85036,
50755,
28321,
16340,
12582,
12340,
13934,
14814,
14767,
13357,
10675,
8065,
6028,
4584,
3795,
3383,
3258,
3211,
3111,
3168,
3045,
3010,
3054,
3061,
2978,
2993,
2900,
2936,
3029,
3003,
2911,
2950,
3006,
2962,
2986,
2953,
3056,
3020,
2990,
3121,
3238,
3292,
3319,
3371,
3243,
3175,
2979,
2911,
2791,
2860,
2836,
3010,
2868,
2900,
2815,
2793,
2799,
2788,
2719,
2711,
2705,
2702,
2651,
2588,
2582,
2612,
2512,
2654,
2544,
2521,
2522,
2504,
2523,
2531,
2545,
2510,
2536,
2566,
2538,
2549,
2477,
2539,
2550,
2421,
2398,
2400,
2373,
2509,
2396,
2451,
2427,
2377,
2453,
2383,
2308,
2335,
2269,
2390,
2222,
2248,
2202,
2254,
2199,
2224,
2208,
2227,
2164,
2245,
2205,
2206,
2184,
2173,
2150,
2174,
2108,
2137,
2133,
2125,
2109,
2081,
2072,
2044,
2014,
2099,
2007,
1991,
2026,
1981,
1966,
2001,
1972,
2008,
2039,
1947,
1965,
1959,
1921,
1948,
1922,
1923,
1930,
1921,
1919,
1955,
1953,
1936,
1870,
1852,
1892,
1890,
1774,
1847,
1828,
1769,
1780,
1778,
1765,
1775,
1716,
1713,
1683,
1705,
1681,
1681,
1676,
1697,
1667,
1681,
1694,
1733,
1754,
1662,
1657,
1702,
1636,
1638,
1658,
1674,
1682,
1632,
1636,
1647,
1658,
1556,
1590,
1596,
1578,
1534,
1515,
1592,
1588,
1561,
1513,
1564,
1494,
1486,
1461,
1529,
1460,
1549,
1499,
1441,
1503,
1446,
1459,
1466,
1363,
1440,
1399,
1427,
1419,
1344,
1468,
1388,
1371,
1414,
1354,
1403,
1420,
1419,
1353,
1346,
1342,
1378,
1312,
1369,
1326,
1327,
1397,
1274,
1354,
1284,
1256,
1309,
1284,
1354,
1338,
1282,
1262,
1265,
1277,
1221,
1248,
1211,
1223,
1254,
1257,
1290,
1275,
1302,
1249,
1223,
1171,
1159,
1189,
1238,
1202,
1154,
1166,
1130,
1109,
1216,
1136,
1110,
1082,
1160,
1180,
1143,
1177,
1141,
1102,
1151,
1120,
1203,
1163,
1084,
1112,
1111,
1020,
1072,
1109,
1075,
1043,
1065,
1017,
1030,
1048,
1007,
1040,
984,
1034,
1058,
1048,
960,
1017,
1034,
984,
1012,
930,
1025,
953,
967,
991,
951,
997,
1019,
904,
999,
929,
944,
977,
884,
967,
901,
919,
914,
943,
924,
942,
888,
924,
904,
906,
887,
932,
862,
873,
907,
865,
903,
856,
885,
923,
864,
822,
857,
917,
858,
923,
849,
851,
836,
844,
869,
914,
856,
827,
862,
838,
813,
809,
825,
833,
854,
841,
772,
815,
878,
785,
780,
796,
829,
831,
887,
857,
929,
1046,
1251,
1604,
2208,
3164,
4689,
6574,
9155,
12188,
15629,
18728,
21754,
23606,
24375,
23557,
21689,
18899,
15400,
11982,
9107,
6426,
4636,
3139,
2188,
1515,
1152,
965,
783,
774,
733,
691,
710,
707,
676,
723,
657,
673,
714,
666,
671,
680,
636,
667,
655,
632,
671,
665,
674,
648,
714,
700,
616,
617,
662,
630,
657,
678,
716,
718,
696,
793,
904,
1032,
1329,
1675,
1973,
2324,
2709,
3067,
3337,
3409,
3408,
3261,
3006,
2673,
2277,
1937,
1581,
1292,
1021,
850,
746,
647,
612,
546,
555,
522,
492,
475,
509,
550,
497,
488,
464,
495,
498,
506,
454,
480,
496,
474,
488,
505,
469,
496,
458,
480,
463,
441,
458,
460,
505,
450,
471,
451,
434,
431,
493,
406,
437,
411,
460,
398,
417,
433,
400,
411,
402,
412,
404,
396,
404,
412,
399,
414,
400,
398,
389,
415,
398,
414,
388,
402,
395,
397,
396,
399,
390,
369,
349,
408,
353,
369,
371,
368,
333,
375,
372,
333,
353,
346,
344,
347,
356,
329,
352,
359,
342,
350,
332,
325,
353,
333,
337,
340,
325,
353,
328,
320,
335,
325,
337,
340,
316,
328,
330,
308,
314,
335,
307,
304,
312,
311,
300,
313,
311,
290,
293,
297,
291,
284,
297,
298,
266,
264,
296,
314,
280,
292,
292,
309,
261,
241,
265,
270,
285,
274,
253,
298,
260,
244,
237,
228,
269,
260,
244,
249,
250,
256,
230,
236,
263,
253,
263,
255,
239,
237,
224,
223,
249,
233,
234,
233,
236,
227,
229,
239,
219,
212,
250,
219,
216,
223,
216,
209,
234,
188,
197,
193,
207,
211,
222,
190,
198,
208,
207,
241,
203,
195,
213,
195,
216,
179,
196,
179,
177,
177,
178,
173,
181,
177,
186,
197,
160,
175,
166,
189,
145,
173,
142,
166,
163,
158,
181,
151,
147,
162,
145,
162,
144,
179,
160,
160,
145,
155,
150,
173,
145,
159,
129,
141,
136,
160,
138,
121,
147,
128,
134,
125,
136,
123,
147,
143,
116,
116,
127,
127,
118,
140,
127,
117,
136,
100,
118,
118,
115,
126,
124,
116,
106,
108,
106,
111,
116,
128,
115,
104,
102,
106,
107,
111,
107,
107,
99,
92,
79,
97,
93,
86,
88,
106,
84,
104,
102,
83,
85,
90,
82,
84,
81,
77,
91,
85,
61,
75,
86,
81,
84,
73,
60,
61,
66,
67,
75,
65,
52,
73,
73,
48,
61,
68,
61,
65,
69,
67,
57,
62,
76,
53,
70,
47,
52,
59,
60,
61,
49,
41,
58,
58,
37,
38,
56,
44,
51,
54,
45,
40,
53,
43,
41,
44,
46,
42,
37,
38,
35,
40,
37,
33,
24,
24,
33,
37,
30,
30,
23,
36,
28,
27,
31,
25,
20,
27,
30,
20,
36,
16,
16,
21,
22,
17,
19,
24,
19,
14,
14,
17,
15,
13,
16,
12,
12,
9,
11,
9,
10,
12,
9,
10,
10,
6,
8,
7,
0,
7,
1,
7,
0,
0,
0,
0,
0,
2,
0,
0,
0,
0,
0,
0,
0,
0,
0,
0,
0,
0,
0,
0,
3,
0,
0,
0,
0,
2,
0,
0,
0,
0,
0,
0,
0,
0,
0,
1,
3,
0,
0,
0,
3,
0,
0,
0,
0,
0,
0,
0,
0,
0,
0,
0,
0,
0,
0,
0,
0,
0,
1,
2,
3,
0,
2,
0,
0,
0,
0,
0,
0,
3,
3,
0,
0,
0,
2,
0,
0,
0,
0,
0,
0,
0,
0,
0,
0,
0,
1,
0,
0,
0,
0,
0,
0,
0,
0,
0,
0,
0,
0,
0,
0,
0,
0,
0,
0,
0,
0,
0,
0,
0,
0,
2,
0,
0,
0,
0,
0,
0,
0,
0,
0,
0,
0,
0,
0,
0,
0,
0,
0,
0,
0,
0,
1,
0,
0,
0,
0,
0,
0,
0,
0,
2,
0,
1,
0,
0,
0,
0,
0,
0,
0,
0,
0,
0,
0,
0,
0,
0,
0,
0,
0,
0,
0,
0,
0,
0,
0,
0,
0,
0,
0,
0,
0,
0,
0,
0,
1,
0,
0,
0,
0,
0,
0,
0,
0,
3,
0,
0,
0,
0,
0,
0,
0,
0,
0,
0,
0,
0,
0,
0,
0,
0,
0,
0,
0,
0,
0,
0,
1,
0,
0,
0,
1,
0,
0,
0,
0,
0,
1,
1,
0,
0,
0,
0,
0,
0,
0,
2,
0,
0,
0,
0,
0,
0,
1,
1,
0,
0,
0,
0,
0,
0,
0,
0,
0,
0,
0,
0,
2,
0,
0,
0,
0,
0,
0,
0,
0,
1,
0,
0,
0,
2,
0,
0,
0,
0,
0,
0,
0,
0,
0,
0,
0,
0,
0,
1,
0,
0,
0,
1,
0,
0,
0,
0,
0,
0,
0,
0,
1,
2,
0,
1,
0,
0,
0,
0,
0,
0,
0,
0,
0,
0,
0,
0,
0,
0,
0,
0,
0,
0,
0,
0,
0,
0,
0,
0,
0,
0,
0,
0,
0,
2,
0,
1,
0,
0,
0,
0,
0,
0,
0,
0,
0,
0,
#ENDOFDATA   :