File: NeXLSpectrum/Pyrite fragments/Fe_StdC_1_15kV10nA130kHz_99kHz_100s.msa
#FORMAT      : EMSA/MAS Spectral Data File
#VERSION     : 1.0
#TITLE       : Bruker Nano spectrum Acquisition
#DATE        : 23-AUG-2019
#TIME        : 09:00
#OWNER       : Bruker Nano
#NPOINTS     : 4096
#NCOLUMNS    : 1
#XUNITS      : eV
#YUNITS      : counts
#DATATYPE    : Y
#XPERCHAN    : 5.00257
#OFFSET      : -482.8305
#BEAMKV      : 15
#SIGNALTYPE  : EDS
#ELEVANGLE   : 40
#AZIMANGLE   : 45
#LIVETIME    : 100
#REALTIME    : 122.798
#PROBECUR    : 10
#TAUWIND     : 0
#TDEADLYR    : 0
#TACTLYR     : 0.045
#TALWIND     : 0.004
#CHOFFSET    : 0.0
#XLABEL      : Energy (eV)
#YLABEL      : Counts
#EDSDET      : SDUTW
##D2STDCMP   : Fe,(Fe:100.0),7.87
##DET_HASH   : c6370f9e-cc72-7559-f57e-203d75c8942b
##CALIB_HASH : fcf71094-1a10-2882-685e-00197fff5925
##SAMPLE     : <BulkSample id="1">\n<mOrientation id="2">\n<double>0.0</double>\n<double>0.0</double>\n<double>-1.0</double>\n</mOrientation>\n</BulkSample>
#SPECTRUM    :
0,
0,
0,
0,
0,
0,
0,
0,
0,
0,
0,
0,
0,
0,
0,
0,
0,
2,
7,
11,
14,
24,
36,
47,
26,
33,
41,
255,
2581,
19183,
76325,
168613,
202943,
134734,
48922,
10102,
1247,
199,
0,
0,
101,
895,
785,
913,
1005,
1132,
1477,
2366,
4184,
7017,
9329,
8748,
5726,
3028,
1761,
1560,
1782,
2090,
2161,
2302,
2486,
2696,
3123,
3617,
4456,
5389,
6493,
7069,
7552,
8925,
13840,
23514,
35337,
42168,
40480,
36982,
44422,
69188,
99737,
112832,
95735,
60286,
29419,
12177,
5811,
3693,
3109,
2693,
2332,
2299,
2282,
2129,
2175,
2143,
2240,
2346,
2401,
2445,
2455,
2653,
2680,
2781,
2841,
3021,
2857,
3032,
2959,
3124,
3174,
3121,
3270,
3395,
3473,
3427,
3519,
3658,
3778,
3867,
3875,
3839,
3814,
3825,
3863,
3871,
3923,
4005,
3917,
3978,
4057,
4092,
4081,
4119,
4180,
4142,
4332,
4136,
4141,
4139,
4133,
4201,
4257,
4188,
4219,
4406,
4400,
4388,
4683,
4828,
4797,
4860,
4752,
4720,
4683,
4548,
4509,
4337,
4413,
4301,
4335,
4335,
4375,
4425,
4368,
4407,
4413,
4416,
4378,
4403,
4378,
4434,
4293,
4441,
4434,
4357,
4391,
4343,
4362,
4373,
4371,
4244,
4187,
4249,
4259,
4365,
4427,
4292,
4265,
4347,
4334,
4325,
4225,
4289,
4272,
4188,
4139,
4193,
4091,
4198,
4132,
4106,
4006,
4022,
4004,
3978,
3967,
4002,
3911,
3985,
3887,
3916,
3948,
3870,
4017,
3888,
3913,
3855,
3755,
3821,
3821,
3761,
3844,
3727,
3775,
3680,
3723,
3749,
3749,
3721,
3682,
3564,
3667,
3620,
3612,
3508,
3562,
3583,
3580,
3498,
3434,
3471,
3409,
3467,
3402,
3389,
3430,
3394,
3333,
3439,
3290,
3287,
3290,
3270,
3314,
3235,
3265,
3218,
3233,
3182,
3225,
3093,
3299,
3112,
3136,
3155,
3100,
3128,
3045,
3009,
3018,
2928,
3009,
2956,
2968,
2955,
2926,
2946,
3021,
3062,
3009,
2963,
2973,
2869,
2908,
2774,
2841,
2730,
2729,
2780,
2767,
2688,
2675,
2697,
2819,
2657,
2664,
2658,
2683,
2647,
2617,
2616,
2663,
2610,
2574,
2638,
2564,
2478,
2471,
2550,
2457,
2527,
2528,
2502,
2410,
2480,
2449,
2491,
2485,
2389,
2358,
2440,
2392,
2310,
2296,
2258,
2299,
2312,
2314,
2358,
2305,
2325,
2217,
2279,
2256,
2213,
2295,
2190,
2097,
2204,
2235,
2078,
2169,
2172,
2190,
2191,
2101,
2154,
2100,
2045,
1988,
2104,
2013,
2025,
2058,
2061,
1988,
2040,
2037,
1991,
1943,
1954,
1932,
1977,
1958,
1938,
1929,
1904,
1954,
1933,
1870,
1825,
1860,
1784,
1868,
1851,
1857,
1747,
1854,
1693,
1772,
1836,
1839,
1789,
1805,
1743,
1737,
1776,
1742,
1720,
1741,
1668,
1707,
1682,
1680,
1631,
1673,
1665,
1722,
1662,
1721,
1670,
1662,
1706,
1657,
1628,
1589,
1699,
1574,
1609,
1638,
1617,
1544,
1641,
1608,
1595,
1611,
1509,
1525,
1557,
1477,
1530,
1515,
1517,
1502,
1473,
1458,
1483,
1424,
1427,
1479,
1411,
1446,
1510,
1486,
1478,
1477,
1464,
1454,
1458,
1534,
1504,
1545,
1520,
1556,
1635,
1612,
1722,
1976,
2416,
3171,
4766,
7657,
12271,
19200,
28955,
41094,
54929,
68160,
79333,
86825,
87405,
83034,
73376,
60106,
46218,
33146,
22527,
14515,
9123,
5484,
3505,
2381,
1850,
1575,
1462,
1403,
1397,
1317,
1353,
1322,
1297,
1284,
1302,
1287,
1278,
1310,
1265,
1292,
1393,
1272,
1407,
1486,
1508,
1727,
2090,
2521,
3347,
4338,
5532,
7151,
8743,
10111,
11273,
11863,
11652,
10954,
9665,
8247,
6641,
4990,
3792,
2846,
2064,
1612,
1284,
1112,
984,
948,
905,
921,
868,
872,
853,
888,
872,
875,
897,
880,
852,
859,
878,
898,
870,
901,
820,
821,
853,
819,
828,
832,
827,
819,
812,
813,
821,
798,
808,
816,
816,
802,
790,
803,
792,
820,
799,
773,
777,
775,
770,
775,
771,
798,
763,
814,
737,
785,
751,
734,
746,
730,
746,
764,
718,
726,
739,
727,
711,
776,
756,
741,
742,
730,
718,
741,
697,
753,
681,
680,
696,
695,
668,
676,
671,
636,
676,
729,
680,
631,
696,
642,
676,
659,
681,
666,
647,
689,
687,
670,
564,
604,
639,
648,
600,
644,
666,
634,
598,
625,
593,
607,
627,
639,
608,
600,
613,
624,
610,
588,
591,
602,
621,
573,
597,
574,
591,
572,
609,
622,
575,
549,
596,
552,
600,
595,
569,
556,
508,
552,
564,
525,
546,
573,
535,
535,
524,
528,
570,
509,
561,
511,
537,
520,
524,
499,
510,
499,
524,
490,
535,
472,
478,
463,
518,
490,
478,
502,
524,
490,
501,
516,
495,
480,
437,
477,
483,
446,
431,
460,
495,
451,
455,
463,
469,
473,
465,
459,
429,
458,
451,
473,
463,
470,
462,
441,
443,
387,
468,
458,
440,
441,
435,
390,
421,
401,
417,
409,
398,
382,
413,
382,
424,
409,
441,
401,
375,
376,
412,
397,
411,
363,
357,
370,
382,
401,
370,
387,
362,
353,
367,
361,
371,
407,
344,
365,
336,
336,
382,
374,
361,
326,
359,
338,
361,
300,
346,
338,
312,
377,
326,
262,
298,
326,
317,
312,
288,
313,
319,
285,
313,
277,
347,
298,
291,
314,
297,
285,
290,
320,
294,
299,
305,
286,
307,
277,
279,
301,
264,
277,
248,
253,
271,
272,
257,
304,
270,
299,
241,
253,
251,
266,
256,
231,
237,
234,
264,
266,
264,
238,
214,
275,
222,
251,
235,
258,
245,
230,
246,
207,
234,
215,
226,
221,
216,
216,
225,
209,
203,
183,
216,
224,
213,
209,
188,
206,
182,
194,
226,
186,
208,
198,
202,
199,
214,
204,
191,
219,
185,
211,
202,
178,
201,
171,
163,
176,
176,
176,
182,
180,
173,
181,
178,
169,
178,
163,
177,
157,
158,
159,
158,
176,
141,
174,
168,
141,
138,
155,
138,
130,
135,
152,
127,
126,
149,
126,
149,
112,
138,
131,
146,
124,
126,
123,
121,
122,
142,
117,
120,
138,
108,
118,
129,
116,
123,
121,
121,
134,
122,
124,
115,
120,
107,
96,
136,
88,
103,
99,
93,
107,
87,
96,
85,
108,
77,
97,
86,
89,
93,
73,
78,
83,
76,
89,
85,
85,
88,
86,
79,
74,
78,
81,
84,
79,
77,
76,
77,
84,
66,
62,
82,
75,
62,
68,
58,
69,
57,
70,
79,
71,
41,
50,
53,
53,
51,
57,
44,
52,
38,
45,
47,
60,
45,
33,
50,
52,
56,
41,
70,
38,
35,
33,
32,
39,
40,
37,
39,
31,
35,
39,
27,
24,
34,
38,
21,
20,
20,
27,
20,
30,
28,
18,
23,
24,
22,
22,
16,
19,
29,
23,
19,
40,
18,
20,
19,
14,
16,
25,
12,
6,
14,
13,
11,
13,
8,
13,
8,
6,
7,
3,
9,
6,
3,
5,
2,
2,
0,
2,
0,
8,
1,
2,
0,
3,
4,
1,
0,
1,
0,
0,
1,
0,
0,
0,
0,
0,
0,
2,
0,
0,
0,
0,
0,
0,
0,
0,
0,
0,
0,
0,
0,
0,
0,
0,
3,
0,
0,
0,
0,
0,
0,
0,
0,
0,
0,
2,
0,
0,
0,
0,
0,
0,
0,
0,
2,
0,
0,
0,
0,
1,
0,
0,
0,
0,
2,
0,
1,
3,
0,
0,
0,
2,
0,
0,
0,
0,
0,
0,
0,
0,
2,
0,
0,
0,
0,
1,
1,
0,
2,
0,
0,
0,
0,
0,
0,
0,
0,
0,
0,
0,
0,
0,
0,
0,
0,
0,
1,
1,
0,
0,
3,
0,
0,
0,
0,
0,
0,
0,
0,
0,
0,
0,
1,
0,
0,
0,
0,
0,
0,
0,
0,
0,
0,
2,
3,
0,
0,
0,
0,
0,
0,
0,
0,
0,
0,
0,
1,
1,
0,
0,
0,
0,
0,
0,
0,
0,
1,
0,
0,
0,
0,
0,
0,
0,
0,
0,
0,
0,
0,
0,
0,
0,
0,
0,
1,
0,
0,
0,
0,
0,
0,
1,
0,
1,
0,
0,
0,
1,
0,
0,
0,
0,
1,
0,
0,
0,
0,
0,
3,
1,
0,
0,
0,
1,
0,
0,
0,
1,
0,
1,
0,
0,
0,
0,
1,
0,
1,
0,
0,
0,
0,
0,
0,
0,
0,
0,
0,
0,
0,
2,
0,
0,
0,
0,
0,
0,
0,
0,
0,
0,
0,
0,
0,
0,
0,
0,
1,
1,
0,
0,
0,
0,
0,
0,
0,
0,
0,
0,
0,
0,
0,
0,
0,
0,
0,
0,
0,
0,
0,
0,
0,
0,
0,
1,
0,
0,
0,
2,
0,
0,
0,
0,
0,
0,
0,
0,
1,
0,
0,
1,
0,
2,
1,
0,
0,
0,
1,
0,
1,
0,
0,
1,
1,
1,
0,
0,
0,
0,
0,
0,
0,
0,
0,
0,
1,
2,
0,
1,
0,
0,
0,
0,
0,
0,
0,
0,
0,
0,
0,
#ENDOFDATA   :