File: NeXLSpectrum/Pyrite fragments/Fe_StdC_2_15kV10nA130kHz_99kHz_100s.msa
#FORMAT      : EMSA/MAS Spectral Data File
#VERSION     : 1.0
#TITLE       : Bruker Nano spectrum Acquisition
#DATE        : 23-AUG-2019
#TIME        : 09:03
#OWNER       : Bruker Nano
#NPOINTS     : 4096
#NCOLUMNS    : 1
#XUNITS      : eV
#YUNITS      : counts
#DATATYPE    : Y
#XPERCHAN    : 5.00257
#OFFSET      : -482.8305
#BEAMKV      : 15
#SIGNALTYPE  : EDS
#ELEVANGLE   : 40
#AZIMANGLE   : 45
#LIVETIME    : 100
#REALTIME    : 122.701
#PROBECUR    : 10
#TAUWIND     : 0
#TDEADLYR    : 0
#TACTLYR     : 0.045
#TALWIND     : 0.004
#CHOFFSET    : 0.0
#XLABEL      : Energy (eV)
#YLABEL      : Counts
#EDSDET      : SDUTW
##D2STDCMP   : Fe,(Fe:100.0),7.87
##DET_HASH   : c6370f9e-cc72-7559-f57e-203d75c8942b
##CALIB_HASH : fcf71094-1a10-2882-685e-00197fff5925
##SAMPLE     : <BulkSample id="1">\n<mOrientation id="2">\n<double>0.0</double>\n<double>0.0</double>\n<double>-1.0</double>\n</mOrientation>\n</BulkSample>
#SPECTRUM    :
0,
0,
0,
0,
0,
0,
0,
0,
0,
0,
0,
0,
0,
0,
0,
0,
0,
1,
1,
12,
16,
28,
30,
34,
29,
24,
35,
235,
2737,
19099,
76284,
168183,
202377,
134782,
48894,
9954,
1421,
189,
50,
25,
90,
847,
863,
885,
921,
1159,
1544,
2362,
4255,
7070,
9268,
8713,
5757,
3004,
1761,
1577,
1794,
1992,
2186,
2288,
2431,
2705,
3091,
3711,
4251,
5328,
6352,
6880,
7283,
8906,
13749,
23701,
35441,
42214,
40487,
36810,
44719,
69199,
100059,
113283,
95810,
60419,
29268,
12093,
5615,
3725,
3041,
2669,
2432,
2205,
2147,
2147,
2156,
2200,
2260,
2306,
2363,
2422,
2543,
2612,
2638,
2699,
2761,
2868,
2903,
2928,
2975,
3113,
3119,
3236,
3312,
3362,
3302,
3434,
3435,
3708,
3684,
3868,
3849,
3844,
3853,
3870,
3854,
3930,
4001,
4025,
3980,
4071,
4060,
4063,
4122,
4241,
4123,
4196,
4113,
4137,
4226,
4054,
4197,
4212,
4151,
4243,
4220,
4306,
4346,
4469,
4622,
4714,
4844,
4760,
4638,
4558,
4679,
4619,
4445,
4534,
4321,
4300,
4338,
4287,
4353,
4427,
4347,
4521,
4461,
4414,
4349,
4483,
4439,
4368,
4416,
4423,
4325,
4373,
4404,
4278,
4272,
4356,
4338,
4303,
4410,
4341,
4370,
4311,
4342,
4387,
4433,
4337,
4211,
4253,
4224,
4177,
4198,
4206,
4160,
4225,
4177,
4206,
4129,
4048,
4064,
4071,
4000,
4039,
4004,
4063,
4045,
3985,
4009,
3908,
3999,
3897,
3913,
3887,
3920,
3773,
3840,
3711,
3765,
3788,
3850,
3803,
3805,
3677,
3652,
3705,
3667,
3634,
3625,
3550,
3612,
3599,
3580,
3560,
3573,
3436,
3504,
3490,
3506,
3385,
3515,
3363,
3271,
3375,
3395,
3343,
3293,
3396,
3330,
3306,
3341,
3259,
3216,
3223,
3271,
3210,
3206,
3136,
3184,
3168,
3182,
3091,
3053,
3063,
3090,
3051,
3134,
3145,
2993,
3030,
2958,
3023,
2931,
2915,
2936,
2986,
2996,
3024,
2984,
2963,
2901,
2923,
2893,
2823,
2761,
2773,
2728,
2795,
2770,
2700,
2719,
2729,
2722,
2626,
2608,
2557,
2717,
2527,
2635,
2652,
2583,
2513,
2600,
2517,
2523,
2568,
2578,
2432,
2424,
2510,
2498,
2460,
2450,
2477,
2435,
2388,
2423,
2369,
2437,
2362,
2343,
2372,
2273,
2401,
2310,
2302,
2324,
2250,
2330,
2247,
2374,
2352,
2279,
2204,
2345,
2129,
2193,
2171,
2238,
2158,
2160,
2180,
2121,
2111,
2142,
2108,
2104,
2085,
2166,
2090,
2055,
2112,
2075,
2034,
2039,
1966,
1890,
1944,
1906,
2035,
1969,
1924,
1915,
1970,
1874,
1949,
1945,
1858,
1847,
1892,
1866,
1837,
1793,
1841,
1777,
1819,
1774,
1840,
1717,
1880,
1795,
1841,
1758,
1788,
1730,
1762,
1851,
1735,
1734,
1681,
1670,
1764,
1741,
1642,
1678,
1704,
1718,
1675,
1733,
1733,
1621,
1747,
1617,
1703,
1741,
1646,
1547,
1557,
1609,
1604,
1595,
1553,
1550,
1528,
1583,
1520,
1586,
1638,
1563,
1447,
1529,
1562,
1399,
1572,
1555,
1461,
1492,
1497,
1446,
1500,
1524,
1540,
1417,
1509,
1511,
1460,
1493,
1503,
1535,
1553,
1475,
1524,
1592,
1628,
1655,
1761,
1956,
2326,
3240,
4754,
7641,
12193,
18948,
28549,
40929,
54222,
68316,
79150,
86511,
87870,
82460,
72854,
59770,
46004,
32919,
22575,
14242,
8839,
5522,
3420,
2327,
1801,
1570,
1432,
1397,
1349,
1367,
1325,
1302,
1306,
1314,
1288,
1226,
1283,
1221,
1287,
1333,
1369,
1274,
1415,
1424,
1606,
1719,
1965,
2523,
3237,
4372,
5618,
6952,
8635,
10228,
11325,
11807,
11599,
10944,
9701,
8251,
6536,
5096,
3831,
2726,
2046,
1591,
1261,
1110,
959,
950,
911,
895,
936,
808,
859,
897,
891,
804,
866,
834,
817,
858,
854,
859,
905,
878,
835,
842,
799,
894,
804,
849,
854,
840,
767,
788,
828,
799,
816,
779,
798,
771,
812,
769,
776,
784,
771,
760,
777,
771,
743,
773,
761,
744,
741,
747,
721,
799,
751,
759,
735,
744,
748,
769,
768,
763,
730,
674,
733,
738,
693,
711,
684,
692,
704,
703,
674,
752,
685,
696,
684,
674,
705,
706,
735,
656,
649,
700,
613,
665,
653,
658,
687,
668,
616,
631,
653,
642,
677,
629,
622,
601,
665,
662,
615,
613,
633,
664,
587,
648,
603,
603,
615,
613,
597,
575,
600,
593,
653,
586,
539,
576,
602,
568,
566,
585,
599,
555,
557,
564,
576,
576,
549,
557,
559,
542,
543,
556,
570,
543,
547,
555,
523,
534,
563,
526,
492,
551,
580,
577,
490,
514,
530,
498,
527,
490,
515,
507,
535,
521,
521,
451,
540,
499,
448,
488,
460,
516,
537,
516,
481,
441,
488,
479,
458,
467,
457,
494,
459,
480,
450,
469,
489,
461,
429,
481,
468,
444,
427,
436,
439,
448,
468,
444,
427,
472,
467,
410,
445,
440,
468,
415,
426,
433,
406,
412,
465,
386,
457,
390,
373,
370,
413,
380,
377,
373,
399,
383,
413,
422,
377,
372,
350,
388,
377,
369,
372,
402,
410,
383,
361,
387,
363,
377,
364,
375,
356,
372,
360,
338,
359,
314,
338,
334,
375,
316,
340,
339,
346,
306,
338,
344,
343,
341,
361,
300,
292,
314,
301,
313,
314,
299,
324,
305,
313,
306,
319,
276,
305,
323,
291,
293,
310,
315,
304,
272,
282,
256,
279,
266,
230,
300,
257,
266,
284,
248,
261,
284,
260,
241,
250,
262,
257,
276,
263,
261,
248,
239,
239,
251,
248,
237,
251,
248,
233,
211,
210,
222,
237,
211,
230,
216,
187,
218,
229,
224,
235,
206,
210,
235,
235,
234,
222,
222,
229,
187,
191,
205,
208,
223,
210,
189,
191,
205,
168,
196,
213,
191,
194,
202,
184,
192,
170,
183,
194,
176,
179,
165,
163,
188,
207,
167,
192,
166,
157,
157,
175,
161,
177,
138,
175,
165,
154,
163,
150,
184,
125,
137,
153,
135,
125,
127,
116,
103,
113,
114,
127,
123,
124,
128,
123,
138,
117,
123,
124,
111,
127,
120,
135,
114,
118,
130,
128,
104,
103,
113,
115,
131,
124,
110,
115,
106,
98,
105,
110,
101,
97,
112,
113,
112,
121,
53,
90,
73,
92,
89,
91,
77,
82,
80,
76,
87,
84,
79,
77,
82,
80,
78,
73,
84,
74,
82,
77,
70,
82,
71,
75,
71,
69,
72,
61,
63,
69,
66,
66,
71,
65,
58,
69,
60,
65,
63,
53,
59,
55,
59,
49,
57,
55,
49,
46,
51,
48,
46,
40,
52,
53,
52,
40,
36,
34,
38,
44,
39,
34,
38,
42,
37,
41,
37,
21,
33,
32,
35,
45,
32,
21,
22,
31,
25,
29,
25,
31,
21,
17,
19,
20,
20,
26,
22,
18,
17,
15,
18,
14,
14,
21,
18,
12,
10,
17,
6,
19,
5,
6,
4,
5,
8,
7,
8,
8,
9,
9,
5,
4,
5,
1,
0,
0,
0,
0,
0,
0,
0,
0,
0,
0,
0,
0,
0,
4,
1,
0,
1,
0,
3,
1,
0,
0,
0,
0,
0,
0,
0,
0,
0,
0,
0,
2,
0,
4,
0,
0,
0,
0,
0,
0,
0,
0,
0,
1,
3,
0,
2,
0,
0,
0,
0,
0,
0,
0,
0,
0,
0,
0,
0,
0,
0,
0,
0,
1,
0,
3,
0,
0,
0,
0,
0,
0,
0,
0,
2,
0,
0,
2,
0,
0,
1,
0,
0,
2,
0,
0,
0,
0,
1,
1,
0,
0,
0,
0,
0,
0,
2,
0,
0,
0,
0,
0,
0,
0,
1,
1,
0,
0,
0,
0,
0,
0,
0,
0,
0,
0,
0,
0,
0,
0,
0,
0,
0,
0,
1,
0,
0,
3,
0,
0,
0,
0,
0,
0,
0,
0,
0,
1,
0,
0,
0,
0,
0,
0,
0,
0,
1,
0,
0,
0,
2,
1,
0,
1,
1,
0,
0,
0,
0,
1,
0,
0,
0,
0,
0,
0,
0,
1,
1,
1,
0,
0,
4,
0,
0,
0,
0,
0,
0,
0,
0,
0,
0,
1,
0,
0,
2,
0,
1,
0,
0,
0,
0,
0,
0,
0,
0,
0,
1,
0,
0,
0,
1,
0,
0,
0,
2,
0,
2,
0,
1,
1,
1,
0,
0,
0,
0,
0,
0,
0,
0,
0,
0,
0,
0,
0,
0,
0,
0,
0,
0,
2,
0,
0,
0,
0,
0,
0,
0,
0,
0,
0,
0,
0,
0,
0,
0,
0,
0,
1,
0,
0,
0,
1,
0,
0,
0,
0,
0,
0,
0,
1,
0,
0,
0,
1,
0,
0,
0,
0,
0,
0,
0,
0,
0,
0,
0,
0,
0,
0,
0,
0,
0,
0,
0,
0,
0,
0,
1,
0,
1,
0,
1,
0,
0,
0,
0,
0,
0,
0,
0,
1,
1,
0,
0,
0,
0,
1,
0,
1,
0,
0,
0,
0,
0,
1,
0,
0,
0,
0,
0,
0,
0,
0,
0,
1,
0,
0,
0,
0,
0,
0,
#ENDOFDATA   :