File: NeXLSpectrum/Pyrite fragments/Fe_StdC_3_15kV10nA130kHz_99kHz_100s.msa
#FORMAT      : EMSA/MAS Spectral Data File
#VERSION     : 1.0
#TITLE       : Bruker Nano spectrum Acquisition
#DATE        : 23-AUG-2019
#TIME        : 09:06
#OWNER       : Bruker Nano
#NPOINTS     : 4096
#NCOLUMNS    : 1
#XUNITS      : eV
#YUNITS      : counts
#DATATYPE    : Y
#XPERCHAN    : 5.00257
#OFFSET      : -482.8305
#BEAMKV      : 15
#SIGNALTYPE  : EDS
#ELEVANGLE   : 40
#AZIMANGLE   : 45
#LIVETIME    : 100
#REALTIME    : 122.816
#PROBECUR    : 10
#TAUWIND     : 0
#TDEADLYR    : 0
#TACTLYR     : 0.045
#TALWIND     : 0.004
#CHOFFSET    : 0.0
#XLABEL      : Energy (eV)
#YLABEL      : Counts
#EDSDET      : SDUTW
##D2STDCMP   : Fe,(Fe:100.0),7.87
##DET_HASH   : c6370f9e-cc72-7559-f57e-203d75c8942b
##CALIB_HASH : fcf71094-1a10-2882-685e-00197fff5925
##SAMPLE     : <BulkSample id="1">\n<mOrientation id="2">\n<double>0.0</double>\n<double>0.0</double>\n<double>-1.0</double>\n</mOrientation>\n</BulkSample>
#SPECTRUM    :
0,
0,
0,
0,
0,
0,
0,
0,
0,
0,
0,
0,
0,
0,
0,
0,
0,
1,
4,
11,
25,
23,
32,
39,
33,
28,
44,
232,
2608,
19123,
76661,
167838,
202102,
134368,
48935,
10250,
1369,
198,
57,
34,
102,
873,
844,
884,
998,
1145,
1425,
2376,
4146,
6926,
9260,
8614,
5752,
2917,
1770,
1616,
1819,
2007,
2203,
2251,
2490,
2820,
3144,
3737,
4435,
5419,
6459,
6999,
7393,
8909,
13803,
23483,
35242,
42093,
40335,
36907,
44596,
69667,
100675,
113513,
95779,
60753,
29481,
12061,
5658,
3831,
2982,
2646,
2346,
2359,
2234,
2309,
2210,
2124,
2175,
2290,
2373,
2399,
2536,
2610,
2639,
2742,
2822,
2738,
2845,
2949,
3054,
3119,
3158,
3313,
3257,
3378,
3388,
3479,
3433,
3600,
3632,
3717,
3860,
3828,
3805,
3824,
3892,
3903,
3882,
3995,
3982,
4041,
4062,
3993,
4131,
4142,
4260,
4205,
4103,
4199,
4187,
4225,
4071,
4190,
4186,
4103,
4264,
4274,
4364,
4529,
4595,
4703,
4824,
4875,
4719,
4562,
4562,
4594,
4444,
4453,
4346,
4341,
4308,
4452,
4397,
4394,
4420,
4308,
4370,
4342,
4436,
4393,
4387,
4477,
4457,
4436,
4462,
4426,
4270,
4232,
4231,
4122,
4284,
4312,
4406,
4262,
4319,
4238,
4277,
4233,
4479,
4307,
4279,
4299,
4310,
4253,
4231,
4206,
4234,
4166,
4167,
4106,
4199,
4109,
4166,
4074,
4006,
4045,
3952,
3967,
4018,
4029,
3944,
4014,
3969,
3934,
3893,
3955,
3880,
3820,
3753,
3773,
3762,
3798,
3793,
3729,
3732,
3676,
3731,
3653,
3648,
3712,
3702,
3628,
3620,
3671,
3566,
3558,
3544,
3537,
3505,
3551,
3376,
3514,
3371,
3411,
3392,
3426,
3342,
3404,
3297,
3375,
3381,
3183,
3307,
3314,
3235,
3213,
3212,
3198,
3154,
3171,
3134,
3119,
3151,
3078,
3012,
3176,
3159,
3107,
3090,
3110,
2993,
3001,
2944,
2954,
2971,
2946,
3012,
2979,
3058,
2956,
2912,
2996,
2936,
2894,
2813,
2864,
2793,
2725,
2729,
2796,
2716,
2719,
2701,
2696,
2608,
2670,
2705,
2747,
2644,
2583,
2680,
2639,
2645,
2610,
2598,
2593,
2607,
2527,
2567,
2601,
2442,
2444,
2486,
2476,
2377,
2420,
2452,
2472,
2359,
2469,
2407,
2438,
2302,
2246,
2347,
2229,
2314,
2247,
2388,
2276,
2307,
2268,
2287,
2302,
2332,
2317,
2229,
2266,
2203,
2214,
2178,
2247,
2234,
2097,
2181,
2102,
2111,
2036,
2072,
2115,
2039,
2043,
2076,
1983,
2022,
2046,
1964,
2020,
1958,
1936,
2016,
1887,
1957,
1997,
1939,
1972,
1912,
1800,
1953,
1826,
1849,
1892,
1816,
1836,
1907,
1805,
1832,
1877,
1867,
1799,
1886,
1779,
1774,
1739,
1725,
1785,
1800,
1713,
1787,
1753,
1736,
1778,
1721,
1641,
1712,
1730,
1677,
1731,
1693,
1697,
1728,
1659,
1614,
1693,
1621,
1750,
1583,
1590,
1655,
1660,
1627,
1596,
1591,
1606,
1561,
1602,
1564,
1537,
1549,
1450,
1548,
1524,
1566,
1552,
1491,
1452,
1463,
1480,
1515,
1492,
1434,
1500,
1502,
1482,
1487,
1455,
1415,
1524,
1473,
1449,
1523,
1540,
1459,
1549,
1530,
1554,
1669,
1736,
1942,
2364,
3225,
4887,
7619,
12097,
19334,
28860,
41336,
54296,
68375,
79292,
86419,
87460,
82626,
72669,
60217,
46053,
33303,
22142,
14387,
8880,
5567,
3490,
2397,
1901,
1553,
1463,
1390,
1351,
1334,
1332,
1303,
1312,
1313,
1284,
1303,
1300,
1276,
1297,
1305,
1324,
1370,
1371,
1438,
1587,
1758,
2087,
2544,
3211,
4293,
5574,
7121,
8671,
10188,
11250,
11753,
11670,
11096,
9802,
8270,
6616,
5100,
3752,
2811,
2127,
1559,
1298,
1056,
965,
964,
891,
910,
867,
820,
843,
829,
939,
895,
819,
840,
863,
869,
822,
891,
858,
886,
830,
837,
814,
827,
829,
810,
801,
818,
805,
803,
815,
798,
789,
793,
814,
770,
793,
796,
800,
768,
768,
770,
762,
776,
758,
763,
766,
788,
726,
725,
818,
789,
778,
776,
780,
771,
727,
703,
724,
699,
693,
719,
760,
729,
721,
746,
721,
712,
681,
699,
735,
731,
722,
699,
717,
709,
695,
637,
708,
666,
716,
666,
653,
662,
655,
679,
649,
661,
667,
658,
663,
645,
627,
686,
623,
682,
633,
659,
666,
634,
643,
615,
587,
562,
593,
585,
646,
611,
672,
626,
627,
583,
642,
570,
587,
588,
612,
606,
565,
595,
554,
573,
566,
557,
555,
543,
590,
583,
578,
543,
555,
589,
557,
543,
563,
529,
528,
550,
504,
500,
550,
519,
498,
581,
550,
554,
493,
523,
476,
505,
542,
506,
527,
483,
532,
490,
507,
498,
534,
495,
496,
493,
489,
479,
505,
486,
494,
486,
479,
504,
514,
476,
442,
477,
486,
440,
452,
466,
414,
464,
410,
439,
442,
461,
437,
437,
446,
436,
447,
462,
423,
435,
429,
425,
408,
427,
367,
424,
403,
404,
380,
395,
413,
415,
449,
418,
416,
426,
353,
398,
409,
423,
439,
427,
367,
433,
375,
386,
334,
366,
375,
355,
367,
370,
361,
374,
373,
379,
378,
365,
368,
334,
354,
324,
347,
327,
321,
359,
349,
340,
328,
322,
311,
329,
326,
311,
342,
331,
310,
330,
296,
339,
312,
297,
307,
287,
309,
306,
298,
312,
318,
285,
261,
281,
271,
302,
280,
328,
270,
302,
287,
257,
266,
271,
270,
274,
287,
259,
263,
243,
262,
271,
255,
235,
266,
250,
257,
239,
232,
249,
274,
259,
286,
230,
243,
239,
234,
244,
214,
231,
245,
265,
222,
217,
222,
229,
213,
237,
224,
219,
222,
212,
222,
229,
218,
229,
214,
224,
239,
209,
209,
214,
188,
185,
234,
171,
192,
205,
205,
191,
202,
198,
173,
177,
182,
184,
145,
179,
185,
167,
170,
163,
176,
151,
172,
167,
169,
173,
168,
181,
161,
150,
158,
175,
168,
151,
153,
138,
139,
156,
183,
150,
129,
127,
152,
144,
135,
151,
138,
145,
140,
133,
140,
136,
135,
116,
121,
126,
119,
120,
110,
113,
120,
127,
111,
120,
140,
111,
107,
100,
123,
108,
109,
114,
133,
123,
110,
102,
98,
108,
105,
120,
97,
79,
96,
102,
117,
94,
87,
100,
85,
84,
90,
81,
94,
82,
86,
76,
85,
74,
74,
72,
77,
78,
68,
72,
67,
68,
73,
87,
77,
67,
76,
79,
68,
68,
71,
59,
68,
70,
66,
56,
52,
59,
62,
60,
58,
51,
52,
56,
63,
48,
58,
60,
48,
54,
54,
44,
47,
54,
54,
47,
33,
45,
33,
31,
41,
57,
44,
38,
29,
30,
34,
31,
42,
32,
19,
41,
27,
31,
27,
40,
23,
35,
33,
27,
22,
28,
17,
19,
35,
21,
23,
19,
23,
12,
13,
13,
12,
22,
8,
11,
14,
17,
15,
13,
15,
12,
11,
11,
11,
10,
9,
6,
2,
14,
3,
0,
6,
0,
0,
0,
1,
0,
0,
0,
2,
0,
0,
0,
0,
0,
0,
0,
0,
0,
0,
0,
0,
0,
0,
0,
0,
0,
0,
0,
0,
0,
0,
1,
0,
0,
0,
0,
0,
0,
0,
0,
0,
1,
0,
0,
0,
0,
0,
0,
1,
0,
0,
0,
0,
0,
0,
0,
0,
2,
0,
0,
1,
0,
0,
0,
0,
0,
1,
1,
0,
0,
0,
0,
0,
0,
0,
0,
0,
0,
0,
0,
2,
0,
1,
0,
0,
0,
0,
0,
0,
0,
0,
0,
0,
0,
0,
0,
1,
0,
0,
0,
0,
1,
0,
0,
0,
0,
0,
0,
0,
0,
0,
0,
0,
0,
0,
0,
0,
0,
0,
0,
0,
0,
0,
0,
0,
0,
0,
0,
0,
2,
0,
0,
2,
0,
0,
0,
0,
0,
5,
0,
0,
1,
0,
0,
0,
0,
0,
0,
0,
0,
0,
0,
0,
0,
0,
1,
0,
0,
0,
0,
0,
0,
0,
0,
0,
0,
0,
0,
0,
0,
0,
0,
1,
0,
0,
0,
0,
0,
0,
0,
0,
1,
1,
0,
0,
0,
0,
0,
0,
0,
0,
1,
1,
0,
0,
0,
0,
0,
0,
0,
1,
1,
1,
0,
0,
1,
2,
0,
2,
0,
0,
2,
0,
0,
1,
0,
0,
0,
1,
0,
0,
0,
1,
0,
0,
2,
0,
1,
0,
0,
0,
0,
0,
0,
0,
0,
0,
0,
0,
0,
3,
0,
0,
0,
0,
0,
0,
0,
0,
0,
0,
0,
0,
0,
0,
0,
1,
0,
0,
0,
0,
0,
0,
0,
0,
0,
0,
0,
0,
0,
0,
0,
0,
2,
0,
0,
0,
0,
1,
0,
0,
0,
0,
0,
0,
0,
0,
0,
0,
0,
0,
0,
0,
0,
1,
0,
0,
0,
0,
0,
0,
0,
1,
0,
0,
0,
1,
0,
0,
0,
1,
0,
0,
0,
0,
0,
0,
0,
0,
0,
0,
0,
0,
1,
0,
0,
0,
0,
1,
0,
0,
0,
0,
0,
0,
#ENDOFDATA   :