File: NeXLSpectrum/Pyrite fragments/FeS_StdC_1_15kV10nA130kHz_153kHz_100s.msa
#FORMAT      : EMSA/MAS Spectral Data File
#VERSION     : 1.0
#TITLE       : Bruker Nano spectrum Acquisition
#DATE        : 23-AUG-2019
#TIME        : 10:07
#OWNER       : Bruker Nano
#NPOINTS     : 4096
#NCOLUMNS    : 1
#XUNITS      : eV
#YUNITS      : counts
#DATATYPE    : Y
#XPERCHAN    : 5.00257
#OFFSET      : -482.8305
#BEAMKV      : 15
#SIGNALTYPE  : EDS
#ELEVANGLE   : 40
#AZIMANGLE   : 45
#LIVETIME    : 100
#REALTIME    : 126.044
#PROBECUR    : 10
#TAUWIND     : 0
#TDEADLYR    : 0
#TACTLYR     : 0.045
#TALWIND     : 0.004
#CHOFFSET    : 0.0
#XLABEL      : Energy (eV)
#YLABEL      : Counts
#EDSDET      : SDUTW
##D2STDCMP   : FeS,(S:36.4748),(Fe:63.5252),4.74
##DET_HASH   : c6370f9e-cc72-7559-f57e-203d75c8942b
##CALIB_HASH : fcf71094-1a10-2882-685e-00197fff5925
##SAMPLE     : <BulkSample id="1">\n<mOrientation id="2">\n<double>0.0</double>\n<double>0.0</double>\n<double>-1.0</double>\n</mOrientation>\n</BulkSample>
#SPECTRUM    :
0,
0,
0,
0,
0,
0,
0,
0,
0,
0,
0,
0,
0,
0,
0,
0,
0,
0,
4,
17,
31,
35,
42,
34,
28,
34,
48,
298,
3153,
23269,
95164,
210979,
254595,
168541,
60933,
12318,
1584,
184,
82,
44,
193,
1552,
1627,
1388,
1074,
846,
1060,
1616,
3284,
5828,
7886,
7485,
4914,
2450,
1216,
944,
1026,
1069,
1186,
1235,
1354,
1576,
1748,
2244,
2859,
3705,
4668,
5071,
4699,
5272,
6912,
10860,
15359,
18213,
17549,
16248,
19401,
29976,
43270,
50691,
45055,
30506,
16727,
8460,
4848,
3776,
3336,
3029,
2903,
2683,
2866,
2845,
2781,
2705,
2810,
2923,
2989,
3016,
3079,
3239,
3179,
3317,
3299,
3384,
3616,
3532,
3646,
3722,
3754,
3765,
3872,
3843,
4063,
4032,
4196,
4058,
4092,
4300,
4296,
4302,
4305,
4281,
4364,
4419,
4496,
4421,
4464,
4477,
4504,
4550,
4589,
4603,
4832,
4528,
4551,
4547,
4481,
4455,
4382,
4360,
4416,
4487,
4509,
4528,
4613,
4674,
4754,
4894,
4885,
4935,
4867,
4852,
4750,
4713,
4657,
4613,
4500,
4551,
4570,
4534,
4426,
4545,
4404,
4636,
4630,
4581,
4585,
4763,
4702,
4720,
4708,
4590,
4669,
4587,
4536,
4614,
4894,
5104,
6363,
9214,
15801,
30334,
56130,
94355,
139448,
177313,
193453,
179883,
143116,
97875,
58993,
32658,
18511,
13939,
13984,
15970,
17330,
16816,
14981,
12006,
8943,
6490,
4806,
3878,
3387,
3177,
3063,
3040,
2975,
2969,
2923,
2859,
2991,
2924,
2933,
2930,
2859,
2874,
2850,
2897,
2853,
2777,
2878,
2920,
2782,
2823,
2724,
2733,
2707,
2772,
2754,
2685,
2736,
2735,
2726,
2745,
2731,
2755,
2686,
2711,
2713,
2685,
2659,
2683,
2665,
2613,
2652,
2633,
2580,
2580,
2617,
2516,
2558,
2593,
2569,
2554,
2504,
2467,
2480,
2502,
2457,
2427,
2422,
2453,
2367,
2471,
2384,
2302,
2420,
2336,
2329,
2303,
2314,
2362,
2389,
2309,
2406,
2439,
2424,
2371,
2338,
2354,
2258,
2247,
2263,
2234,
2217,
2177,
2086,
2194,
2110,
2130,
2134,
2130,
2034,
2077,
2069,
2020,
2089,
2101,
2044,
2069,
2040,
2015,
2055,
2029,
2014,
1989,
1964,
1959,
1940,
1907,
1898,
1919,
2003,
1874,
1892,
1849,
1906,
2013,
1846,
1907,
1812,
1798,
1901,
1824,
1786,
1772,
1841,
1788,
1843,
1810,
1760,
1803,
1776,
1719,
1727,
1675,
1615,
1635,
1589,
1546,
1477,
1534,
1623,
1587,
1633,
1611,
1605,
1617,
1581,
1604,
1588,
1608,
1619,
1566,
1573,
1639,
1580,
1556,
1589,
1603,
1544,
1535,
1577,
1569,
1594,
1506,
1527,
1514,
1477,
1484,
1469,
1490,
1551,
1469,
1496,
1426,
1444,
1473,
1440,
1425,
1440,
1466,
1402,
1463,
1424,
1417,
1412,
1371,
1385,
1339,
1389,
1384,
1354,
1363,
1361,
1371,
1323,
1331,
1351,
1340,
1389,
1273,
1329,
1278,
1303,
1298,
1277,
1191,
1303,
1239,
1263,
1241,
1302,
1236,
1275,
1193,
1310,
1191,
1173,
1252,
1138,
1222,
1153,
1226,
1249,
1168,
1143,
1180,
1201,
1183,
1159,
1211,
1189,
1158,
1142,
1151,
1250,
1149,
1224,
1195,
1172,
1214,
1263,
1328,
1416,
1750,
2150,
3110,
4757,
7472,
11381,
17060,
24272,
32250,
40625,
46970,
51160,
51875,
48615,
43206,
35646,
27333,
19942,
13572,
8842,
5469,
3524,
2376,
1664,
1343,
1153,
1069,
1096,
1077,
997,
1063,
1034,
1073,
1049,
991,
1013,
1013,
984,
1005,
1009,
1006,
1048,
1123,
1134,
1100,
1324,
1444,
1795,
2130,
2807,
3637,
4370,
5417,
6238,
6849,
7260,
7200,
6743,
5922,
5020,
4038,
3183,
2426,
1790,
1401,
1151,
984,
858,
844,
755,
818,
791,
755,
763,
746,
785,
714,
786,
749,
784,
813,
733,
718,
768,
725,
729,
722,
735,
739,
694,
645,
700,
706,
716,
673,
691,
672,
677,
669,
702,
694,
623,
671,
642,
700,
683,
647,
671,
644,
638,
645,
608,
621,
641,
628,
620,
671,
607,
602,
626,
621,
675,
637,
602,
621,
627,
612,
618,
617,
639,
635,
604,
590,
568,
578,
593,
605,
602,
641,
600,
563,
598,
565,
592,
604,
574,
554,
550,
558,
572,
583,
586,
533,
521,
557,
539,
557,
529,
517,
510,
512,
529,
511,
504,
502,
506,
503,
501,
526,
502,
530,
507,
490,
496,
500,
503,
534,
490,
473,
530,
472,
469,
493,
500,
519,
445,
467,
469,
458,
514,
469,
429,
487,
469,
484,
453,
477,
427,
454,
499,
428,
470,
442,
446,
444,
429,
446,
426,
454,
445,
421,
420,
420,
429,
434,
450,
416,
432,
424,
398,
420,
385,
417,
463,
388,
410,
360,
402,
432,
422,
407,
404,
386,
397,
394,
393,
394,
390,
384,
393,
433,
401,
402,
388,
388,
380,
385,
410,
342,
352,
340,
348,
365,
363,
317,
361,
354,
342,
321,
333,
360,
354,
349,
347,
348,
376,
340,
307,
333,
345,
346,
316,
308,
374,
348,
298,
334,
306,
307,
315,
333,
284,
313,
318,
295,
327,
309,
312,
281,
293,
299,
318,
275,
271,
309,
288,
302,
274,
271,
295,
283,
290,
319,
273,
252,
297,
284,
262,
258,
268,
273,
249,
283,
245,
227,
230,
266,
252,
296,
236,
243,
272,
230,
291,
252,
238,
264,
216,
227,
247,
253,
220,
238,
240,
217,
236,
206,
238,
214,
235,
250,
223,
219,
219,
234,
242,
224,
200,
243,
218,
206,
232,
215,
230,
190,
222,
196,
191,
205,
227,
209,
218,
192,
214,
194,
205,
207,
226,
207,
174,
181,
180,
175,
194,
196,
187,
211,
195,
179,
180,
201,
199,
170,
151,
167,
154,
158,
178,
169,
172,
147,
167,
181,
154,
168,
167,
158,
155,
149,
165,
132,
174,
162,
154,
145,
145,
125,
151,
142,
143,
145,
147,
149,
141,
127,
156,
105,
131,
145,
122,
130,
126,
132,
132,
118,
99,
117,
134,
131,
123,
110,
105,
117,
104,
105,
113,
99,
101,
102,
124,
107,
104,
101,
91,
96,
101,
101,
102,
103,
92,
90,
101,
99,
105,
96,
95,
76,
99,
95,
98,
70,
83,
76,
87,
97,
102,
74,
71,
82,
114,
96,
87,
84,
61,
74,
67,
77,
75,
62,
63,
73,
66,
69,
66,
50,
61,
70,
67,
63,
53,
52,
65,
55,
59,
59,
63,
63,
55,
70,
67,
66,
50,
48,
51,
48,
49,
33,
38,
48,
48,
38,
49,
46,
37,
42,
46,
40,
41,
28,
41,
34,
41,
25,
43,
35,
47,
38,
27,
31,
23,
37,
25,
32,
29,
31,
39,
25,
22,
21,
33,
23,
26,
29,
40,
34,
39,
31,
24,
18,
26,
28,
24,
12,
16,
13,
16,
10,
11,
13,
13,
14,
12,
9,
13,
13,
13,
17,
14,
8,
7,
6,
7,
5,
8,
16,
6,
9,
8,
5,
3,
9,
3,
0,
0,
2,
1,
0,
2,
3,
0,
0,
0,
0,
0,
1,
0,
0,
0,
0,
0,
0,
2,
0,
0,
1,
0,
0,
3,
0,
0,
0,
0,
0,
0,
0,
0,
0,
0,
1,
0,
0,
0,
0,
0,
0,
1,
0,
0,
0,
0,
0,
0,
0,
0,
0,
0,
0,
1,
0,
0,
2,
0,
0,
0,
0,
0,
0,
0,
2,
0,
0,
2,
0,
0,
0,
1,
0,
0,
1,
0,
0,
0,
0,
0,
0,
0,
1,
0,
0,
0,
0,
0,
0,
1,
0,
0,
0,
0,
0,
0,
0,
0,
0,
0,
0,
0,
0,
2,
0,
2,
0,
0,
0,
0,
2,
0,
0,
0,
0,
2,
0,
0,
0,
0,
0,
0,
0,
0,
0,
3,
0,
0,
0,
0,
2,
0,
0,
0,
0,
0,
0,
0,
0,
0,
0,
0,
0,
0,
0,
1,
0,
1,
0,
0,
0,
0,
0,
0,
0,
0,
0,
0,
0,
2,
1,
0,
0,
0,
0,
0,
0,
0,
2,
0,
0,
0,
0,
0,
0,
0,
2,
0,
0,
0,
0,
0,
0,
0,
0,
0,
0,
2,
0,
0,
1,
0,
1,
0,
0,
0,
0,
0,
1,
2,
0,
1,
0,
0,
0,
0,
0,
0,
0,
0,
0,
0,
0,
2,
0,
0,
2,
0,
0,
0,
0,
0,
0,
0,
0,
0,
0,
1,
0,
1,
0,
0,
0,
0,
0,
0,
0,
0,
0,
0,
0,
0,
0,
0,
0,
1,
0,
0,
0,
0,
0,
0,
0,
0,
0,
0,
0,
0,
0,
0,
0,
0,
0,
1,
0,
0,
0,
0,
0,
0,
0,
0,
0,
0,
0,
1,
0,
0,
0,
0,
1,
2,
0,
0,
0,
0,
0,
0,
0,
0,
0,
0,
0,
1,
0,
1,
0,
2,
0,
0,
0,
0,
0,
1,
0,
0,
1,
0,
0,
0,
0,
0,
0,
0,
0,
0,
0,
0,
0,
1,
0,
0,
0,
0,
0,
0,
0,
0,
0,
0,
0,
0,
1,
0,
0,
#ENDOFDATA   :