File: NeXLSpectrum/Pyrite fragments/FeS_StdC_3_15kV10nA130kHz_153kHz_100s.msa
#FORMAT      : EMSA/MAS Spectral Data File
#VERSION     : 1.0
#TITLE       : Bruker Nano spectrum Acquisition
#DATE        : 23-AUG-2019
#TIME        : 10:13
#OWNER       : Bruker Nano
#NPOINTS     : 4096
#NCOLUMNS    : 1
#XUNITS      : eV
#YUNITS      : counts
#DATATYPE    : Y
#XPERCHAN    : 5.00257
#OFFSET      : -482.8305
#BEAMKV      : 15
#SIGNALTYPE  : EDS
#ELEVANGLE   : 40
#AZIMANGLE   : 45
#LIVETIME    : 100
#REALTIME    : 125.997
#PROBECUR    : 10
#TAUWIND     : 0
#TDEADLYR    : 0
#TACTLYR     : 0.045
#TALWIND     : 0.004
#CHOFFSET    : 0.0
#XLABEL      : Energy (eV)
#YLABEL      : Counts
#EDSDET      : SDUTW
##D2STDCMP   : FeS,(S:36.4748),(Fe:63.5252),4.74
##DET_HASH   : c6370f9e-cc72-7559-f57e-203d75c8942b
##CALIB_HASH : fcf71094-1a10-2882-685e-00197fff5925
##SAMPLE     : <BulkSample id="1">\n<mOrientation id="2">\n<double>0.0</double>\n<double>0.0</double>\n<double>-1.0</double>\n</mOrientation>\n</BulkSample>
#SPECTRUM    :
0,
0,
0,
0,
0,
0,
0,
0,
0,
0,
0,
0,
0,
0,
0,
0,
0,
2,
2,
19,
27,
40,
25,
33,
37,
52,
46,
278,
3257,
23254,
95052,
210943,
255113,
168107,
60960,
12341,
1597,
203,
76,
0,
183,
1546,
1619,
1468,
1067,
845,
1045,
1697,
3374,
5867,
7861,
7447,
4932,
2416,
1246,
915,
978,
1085,
1243,
1250,
1355,
1565,
1793,
2189,
2749,
3779,
4594,
4951,
4770,
5134,
7208,
10561,
15399,
18196,
17587,
16264,
19181,
29871,
43510,
51067,
45477,
30720,
16808,
8351,
4830,
3739,
3386,
3015,
2860,
2834,
2649,
2658,
2710,
2772,
2805,
2948,
2974,
2990,
3082,
3119,
3314,
3365,
3375,
3409,
3487,
3567,
3538,
3756,
3731,
3824,
3995,
3868,
3881,
4070,
4028,
4152,
4162,
4164,
4245,
4228,
4164,
4322,
4397,
4370,
4438,
4404,
4499,
4532,
4637,
4609,
4636,
4702,
4681,
4605,
4624,
4589,
4512,
4583,
4474,
4403,
4471,
4427,
4416,
4559,
4643,
4712,
4734,
4965,
4992,
5033,
4893,
4843,
4815,
4746,
4528,
4565,
4512,
4519,
4480,
4290,
4573,
4577,
4584,
4642,
4579,
4533,
4680,
4697,
4597,
4648,
4687,
4625,
4473,
4660,
4548,
4543,
4808,
5270,
6364,
9003,
15736,
30122,
55530,
93934,
139101,
177019,
192895,
179999,
143011,
97732,
59213,
32401,
18441,
13984,
14009,
15782,
17157,
16708,
14970,
12025,
8980,
6477,
4756,
3931,
3394,
3131,
3077,
3043,
2998,
2946,
2976,
2883,
3007,
3016,
2873,
2948,
2897,
2904,
2864,
2806,
2926,
2899,
2920,
2780,
2822,
2862,
2892,
2802,
2750,
2753,
2773,
2759,
2770,
2727,
2763,
2753,
2662,
2702,
2729,
2726,
2698,
2651,
2672,
2602,
2645,
2658,
2570,
2607,
2618,
2561,
2537,
2524,
2569,
2515,
2512,
2527,
2499,
2513,
2474,
2482,
2454,
2492,
2425,
2411,
2472,
2384,
2400,
2355,
2443,
2352,
2342,
2367,
2375,
2307,
2393,
2387,
2330,
2433,
2362,
2403,
2406,
2346,
2285,
2227,
2186,
2175,
2197,
2220,
2181,
2139,
2132,
2074,
2195,
2132,
2063,
2020,
1985,
2086,
2021,
2142,
2079,
2120,
2037,
2001,
1996,
1979,
1977,
2015,
2023,
1967,
1976,
1956,
1939,
1923,
1919,
1920,
1949,
1897,
1905,
1848,
1851,
1972,
1983,
1793,
1891,
1887,
1773,
1828,
1802,
1797,
1798,
1888,
1790,
1812,
1822,
1807,
1764,
1731,
1655,
1625,
1611,
1532,
1545,
1542,
1596,
1564,
1634,
1600,
1595,
1633,
1593,
1566,
1589,
1589,
1527,
1640,
1663,
1591,
1593,
1575,
1566,
1604,
1638,
1537,
1599,
1484,
1524,
1563,
1515,
1507,
1462,
1490,
1572,
1466,
1478,
1527,
1506,
1486,
1550,
1419,
1379,
1504,
1405,
1389,
1430,
1378,
1433,
1426,
1352,
1299,
1364,
1399,
1385,
1338,
1358,
1301,
1337,
1373,
1322,
1349,
1309,
1324,
1304,
1281,
1360,
1290,
1282,
1245,
1273,
1155,
1370,
1270,
1224,
1252,
1210,
1342,
1235,
1195,
1257,
1237,
1202,
1219,
1198,
1211,
1245,
1161,
1273,
1248,
1236,
1214,
1188,
1160,
1198,
1178,
1247,
1142,
1206,
1264,
1163,
1186,
1242,
1219,
1188,
1201,
1301,
1286,
1448,
1715,
2303,
3174,
4728,
7266,
11470,
17430,
24484,
32277,
40447,
46988,
50986,
51912,
49173,
43162,
35572,
27139,
19844,
13445,
8701,
5402,
3492,
2266,
1677,
1344,
1197,
1113,
1096,
1059,
1056,
1033,
1053,
988,
1054,
977,
1022,
1025,
1022,
1021,
1009,
1020,
1024,
1051,
1090,
1161,
1326,
1415,
1725,
2161,
2831,
3541,
4453,
5358,
6272,
6931,
7261,
7081,
6699,
5983,
4970,
3919,
3145,
2469,
1805,
1420,
1140,
987,
878,
799,
751,
814,
747,
800,
754,
741,
713,
736,
786,
729,
697,
760,
801,
779,
770,
720,
703,
729,
728,
714,
719,
705,
760,
662,
685,
735,
670,
685,
661,
679,
683,
652,
657,
682,
659,
648,
604,
663,
611,
666,
674,
645,
619,
662,
635,
650,
559,
668,
619,
633,
642,
634,
647,
626,
660,
587,
614,
629,
637,
632,
638,
609,
625,
584,
661,
661,
667,
588,
586,
557,
599,
572,
565,
590,
565,
587,
538,
559,
570,
595,
571,
539,
549,
579,
583,
573,
559,
579,
504,
537,
529,
530,
520,
518,
517,
521,
519,
487,
501,
504,
491,
515,
493,
491,
494,
477,
485,
500,
510,
467,
496,
465,
501,
470,
473,
514,
473,
488,
469,
493,
452,
472,
484,
442,
486,
434,
459,
508,
448,
468,
450,
482,
453,
426,
426,
422,
412,
439,
419,
410,
432,
436,
412,
430,
432,
406,
439,
446,
434,
410,
429,
448,
424,
416,
415,
402,
417,
407,
380,
425,
404,
406,
411,
421,
408,
395,
383,
392,
353,
393,
351,
398,
351,
349,
362,
371,
375,
369,
380,
377,
353,
412,
370,
389,
370,
407,
361,
333,
376,
375,
348,
338,
351,
356,
340,
333,
325,
361,
338,
314,
343,
362,
340,
293,
350,
342,
314,
359,
331,
337,
316,
333,
344,
307,
316,
308,
314,
315,
320,
278,
331,
305,
301,
313,
272,
280,
283,
279,
277,
289,
287,
290,
284,
283,
274,
285,
278,
293,
285,
228,
255,
289,
305,
253,
254,
255,
280,
240,
286,
234,
237,
236,
237,
208,
237,
257,
249,
260,
242,
219,
253,
234,
206,
250,
243,
246,
236,
224,
197,
209,
235,
223,
220,
233,
219,
210,
208,
225,
230,
231,
222,
212,
190,
219,
182,
228,
207,
216,
195,
192,
188,
188,
173,
207,
203,
204,
205,
184,
199,
175,
186,
210,
175,
179,
196,
177,
199,
195,
204,
153,
175,
160,
181,
196,
157,
170,
172,
180,
177,
173,
149,
161,
157,
149,
172,
156,
150,
157,
155,
138,
141,
145,
140,
136,
171,
135,
154,
145,
162,
137,
134,
156,
135,
139,
116,
130,
141,
113,
146,
132,
105,
126,
136,
124,
141,
151,
128,
111,
132,
122,
115,
125,
117,
120,
113,
117,
115,
110,
109,
110,
96,
101,
106,
106,
91,
90,
101,
94,
106,
86,
94,
103,
108,
80,
92,
86,
93,
102,
79,
94,
79,
76,
79,
101,
98,
80,
91,
89,
83,
69,
73,
90,
75,
86,
82,
70,
82,
70,
54,
72,
70,
76,
64,
54,
74,
59,
54,
72,
62,
63,
40,
66,
66,
65,
66,
49,
70,
48,
55,
58,
51,
64,
59,
67,
49,
72,
47,
50,
45,
47,
41,
43,
47,
54,
41,
47,
41,
42,
43,
51,
41,
42,
35,
48,
39,
37,
35,
32,
35,
25,
34,
47,
33,
37,
26,
26,
36,
23,
23,
27,
26,
29,
36,
35,
28,
27,
23,
19,
17,
31,
15,
13,
21,
23,
20,
20,
19,
18,
19,
18,
18,
9,
12,
11,
16,
15,
8,
11,
9,
3,
9,
14,
10,
10,
14,
7,
7,
10,
3,
6,
8,
7,
2,
4,
8,
1,
0,
2,
2,
0,
1,
0,
0,
0,
0,
0,
0,
0,
0,
0,
0,
0,
0,
0,
0,
0,
0,
0,
0,
0,
0,
0,
3,
0,
0,
0,
0,
0,
0,
0,
0,
0,
0,
0,
0,
0,
0,
0,
0,
0,
0,
0,
0,
2,
0,
0,
0,
0,
1,
0,
0,
0,
0,
0,
0,
0,
3,
0,
2,
0,
1,
0,
0,
0,
0,
0,
0,
0,
0,
0,
0,
1,
0,
0,
0,
2,
2,
2,
0,
0,
0,
0,
2,
0,
0,
0,
0,
0,
0,
0,
0,
0,
0,
0,
0,
0,
0,
0,
0,
0,
1,
0,
0,
3,
0,
1,
0,
0,
0,
1,
0,
3,
0,
0,
0,
0,
0,
0,
0,
2,
0,
0,
0,
1,
0,
0,
0,
0,
0,
1,
1,
0,
0,
0,
0,
0,
2,
0,
0,
0,
0,
0,
0,
0,
0,
0,
0,
0,
0,
0,
0,
0,
0,
0,
0,
0,
0,
0,
0,
0,
0,
0,
0,
0,
0,
1,
0,
0,
0,
0,
0,
0,
0,
0,
0,
1,
1,
0,
0,
0,
0,
1,
1,
2,
0,
0,
1,
0,
0,
0,
0,
0,
1,
0,
0,
0,
0,
0,
1,
0,
0,
0,
0,
2,
0,
0,
0,
0,
2,
0,
1,
0,
0,
0,
0,
0,
0,
1,
0,
0,
0,
0,
0,
0,
0,
0,
1,
0,
1,
0,
0,
0,
0,
0,
1,
0,
0,
0,
0,
0,
0,
0,
0,
0,
0,
0,
0,
0,
0,
0,
1,
0,
0,
1,
1,
0,
1,
0,
0,
0,
0,
0,
1,
0,
0,
0,
0,
0,
0,
0,
0,
1,
0,
0,
0,
0,
0,
1,
0,
1,
0,
0,
0,
0,
0,
0,
0,
0,
0,
0,
0,
0,
0,
1,
0,
0,
0,
0,
0,
2,
0,
1,
0,
0,
0,
2,
0,
0,
0,
0,
0,
0,
0,
0,
1,
0,
0,
0,
0,
1,
0,
0,
0,
0,
0,
0,
0,
0,
0,
0,
#ENDOFDATA   :