File: NeXLSpectrum/Pyrite fragments/FeS_StdC_2_15kV10nA130kHz_153kHz_100s.msa
#FORMAT      : EMSA/MAS Spectral Data File
#VERSION     : 1.0
#TITLE       : Bruker Nano spectrum Acquisition
#DATE        : 23-AUG-2019
#TIME        : 10:10
#OWNER       : Bruker Nano
#NPOINTS     : 4096
#NCOLUMNS    : 1
#XUNITS      : eV
#YUNITS      : counts
#DATATYPE    : Y
#XPERCHAN    : 5.00257
#OFFSET      : -482.8305
#BEAMKV      : 15
#SIGNALTYPE  : EDS
#ELEVANGLE   : 40
#AZIMANGLE   : 45
#LIVETIME    : 100
#REALTIME    : 125.961
#PROBECUR    : 10
#TAUWIND     : 0
#TDEADLYR    : 0
#TACTLYR     : 0.045
#TALWIND     : 0.004
#CHOFFSET    : 0.0
#XLABEL      : Energy (eV)
#YLABEL      : Counts
#EDSDET      : SDUTW
##D2STDCMP   : FeS,(S:36.4748),(Fe:63.5252),4.74
##DET_HASH   : c6370f9e-cc72-7559-f57e-203d75c8942b
##CALIB_HASH : fcf71094-1a10-2882-685e-00197fff5925
##SAMPLE     : <BulkSample id="1">\n<mOrientation id="2">\n<double>0.0</double>\n<double>0.0</double>\n<double>-1.0</double>\n</mOrientation>\n</BulkSample>
#SPECTRUM    :
0,
0,
0,
0,
0,
0,
0,
0,
0,
0,
0,
0,
0,
0,
0,
0,
0,
0,
3,
20,
28,
32,
29,
38,
41,
31,
43,
283,
3251,
23354,
94596,
211397,
254426,
167773,
61096,
12554,
1574,
217,
60,
0,
191,
1605,
1644,
1446,
1055,
940,
962,
1651,
3243,
5760,
7793,
7371,
4870,
2324,
1183,
959,
981,
1124,
1217,
1288,
1393,
1456,
1767,
2184,
3039,
4063,
5114,
5528,
5168,
5313,
7137,
10399,
15120,
18275,
17640,
16499,
19185,
29637,
43082,
50076,
44747,
30386,
16677,
8214,
4850,
3643,
3369,
2996,
2819,
2750,
2704,
2674,
2704,
2745,
2773,
2839,
2886,
2957,
3042,
3109,
3196,
3290,
3358,
3375,
3535,
3595,
3528,
3586,
3743,
3701,
3840,
3983,
3972,
4004,
4087,
4139,
4216,
4217,
4319,
4311,
4345,
4391,
4315,
4385,
4397,
4499,
4468,
4474,
4535,
4600,
4683,
4537,
4625,
4684,
4610,
4492,
4529,
4459,
4364,
4421,
4423,
4443,
4494,
4515,
4568,
4707,
4860,
4956,
5010,
4938,
4964,
4747,
4707,
4596,
4547,
4521,
4431,
4563,
4440,
4379,
4441,
4346,
4544,
4622,
4646,
4668,
4690,
4744,
4680,
4645,
4663,
4589,
4547,
4601,
4517,
4670,
4735,
5162,
6278,
9154,
15792,
29856,
55622,
93149,
138629,
176702,
192056,
180207,
142895,
97751,
58325,
32240,
18538,
13823,
13849,
15733,
16921,
16739,
15002,
11869,
8932,
6420,
4747,
3866,
3360,
3173,
3022,
3030,
2974,
2946,
2953,
2838,
2871,
2946,
2912,
2796,
2850,
2870,
2933,
2818,
2835,
2806,
2769,
2898,
2850,
2819,
2862,
2806,
2750,
2811,
2782,
2763,
2749,
2711,
2740,
2760,
2696,
2644,
2698,
2651,
2659,
2604,
2665,
2589,
2622,
2586,
2571,
2590,
2547,
2648,
2563,
2576,
2514,
2494,
2531,
2495,
2465,
2522,
2510,
2476,
2433,
2405,
2448,
2425,
2421,
2386,
2417,
2362,
2287,
2302,
2287,
2296,
2398,
2318,
2324,
2372,
2379,
2376,
2364,
2348,
2254,
2321,
2227,
2242,
2281,
2142,
2168,
2164,
2216,
2159,
2108,
2089,
2138,
2133,
2111,
2091,
2105,
2124,
2116,
2077,
2029,
2012,
1992,
2094,
2056,
2003,
2014,
2012,
1968,
1955,
1984,
2009,
1947,
1934,
1947,
1917,
1879,
1868,
1844,
1885,
1905,
1869,
1833,
1849,
1891,
1799,
1829,
1846,
1839,
1789,
1874,
1774,
1868,
1840,
1811,
1766,
1753,
1700,
1738,
1577,
1601,
1556,
1531,
1523,
1509,
1545,
1544,
1592,
1601,
1571,
1581,
1591,
1576,
1579,
1572,
1607,
1591,
1549,
1556,
1580,
1515,
1562,
1598,
1529,
1554,
1540,
1593,
1547,
1596,
1528,
1495,
1511,
1500,
1416,
1477,
1487,
1451,
1460,
1516,
1409,
1472,
1435,
1360,
1408,
1431,
1405,
1386,
1427,
1436,
1404,
1416,
1438,
1298,
1357,
1337,
1328,
1390,
1374,
1326,
1339,
1339,
1395,
1384,
1298,
1319,
1374,
1313,
1318,
1260,
1274,
1285,
1209,
1261,
1230,
1284,
1210,
1222,
1204,
1257,
1322,
1184,
1175,
1242,
1211,
1211,
1150,
1283,
1218,
1203,
1257,
1179,
1210,
1207,
1173,
1196,
1140,
1188,
1128,
1230,
1278,
1220,
1251,
1229,
1241,
1280,
1329,
1465,
1618,
2130,
3107,
4735,
7553,
11577,
17293,
24110,
31937,
40261,
46965,
50955,
51673,
48811,
43095,
35838,
27312,
19563,
13383,
8653,
5411,
3443,
2324,
1645,
1318,
1179,
1099,
1094,
1025,
1028,
1001,
997,
987,
1009,
1095,
1019,
1005,
989,
940,
1053,
1029,
1049,
1046,
1146,
1207,
1230,
1448,
1786,
2179,
2810,
3547,
4488,
5438,
6153,
6825,
7183,
7027,
6626,
6018,
5130,
4043,
3172,
2382,
1830,
1417,
1162,
971,
877,
806,
757,
743,
745,
749,
767,
783,
745,
678,
707,
693,
747,
740,
757,
738,
699,
662,
723,
721,
711,
729,
703,
662,
700,
709,
651,
648,
672,
722,
705,
689,
650,
683,
682,
652,
666,
655,
654,
652,
638,
693,
671,
634,
628,
659,
648,
631,
644,
614,
662,
646,
627,
587,
612,
588,
637,
631,
591,
591,
571,
611,
602,
595,
633,
582,
578,
580,
612,
656,
635,
560,
551,
594,
588,
597,
570,
585,
538,
567,
560,
592,
581,
559,
548,
569,
548,
514,
544,
545,
523,
528,
528,
498,
510,
505,
529,
508,
525,
508,
523,
492,
513,
510,
517,
497,
496,
500,
516,
445,
528,
536,
486,
447,
477,
471,
443,
499,
515,
487,
525,
523,
462,
482,
461,
478,
471,
499,
495,
432,
447,
428,
429,
469,
446,
412,
420,
427,
431,
466,
413,
437,
400,
413,
449,
427,
432,
429,
404,
419,
432,
417,
421,
406,
468,
439,
400,
422,
415,
425,
358,
407,
394,
391,
395,
413,
389,
392,
397,
390,
409,
393,
391,
406,
372,
400,
378,
341,
385,
356,
364,
376,
351,
361,
335,
327,
383,
343,
361,
361,
338,
334,
381,
382,
349,
375,
306,
318,
355,
329,
320,
353,
340,
330,
347,
335,
359,
321,
284,
356,
307,
307,
301,
307,
313,
319,
328,
329,
313,
321,
327,
303,
351,
277,
336,
294,
294,
301,
303,
274,
264,
290,
277,
275,
283,
280,
312,
282,
267,
289,
264,
260,
297,
264,
235,
281,
239,
246,
282,
225,
242,
231,
271,
256,
268,
276,
250,
248,
269,
240,
221,
243,
263,
245,
240,
242,
228,
243,
239,
226,
249,
225,
216,
211,
221,
220,
220,
234,
224,
215,
196,
206,
190,
207,
231,
201,
236,
204,
218,
198,
193,
202,
187,
212,
185,
187,
174,
159,
226,
189,
190,
205,
178,
180,
202,
166,
183,
184,
161,
163,
150,
162,
162,
173,
160,
185,
167,
178,
172,
174,
161,
191,
160,
160,
163,
148,
161,
132,
150,
147,
151,
157,
137,
164,
141,
146,
166,
133,
160,
141,
141,
139,
167,
137,
143,
154,
162,
133,
129,
131,
110,
117,
135,
129,
125,
136,
122,
113,
119,
121,
102,
119,
126,
124,
110,
126,
115,
105,
113,
121,
114,
97,
101,
94,
93,
94,
89,
92,
91,
89,
84,
87,
99,
99,
86,
101,
92,
96,
91,
94,
80,
89,
95,
85,
91,
84,
80,
102,
83,
88,
76,
84,
85,
84,
76,
81,
77,
81,
75,
81,
71,
74,
70,
73,
74,
67,
62,
67,
65,
47,
59,
65,
57,
59,
49,
52,
49,
42,
42,
45,
62,
46,
43,
57,
65,
46,
54,
48,
42,
56,
41,
44,
67,
41,
41,
42,
49,
60,
43,
38,
43,
48,
34,
48,
34,
28,
43,
30,
37,
46,
42,
39,
22,
20,
32,
39,
35,
34,
28,
31,
27,
34,
24,
21,
21,
18,
16,
23,
23,
25,
26,
20,
15,
23,
18,
20,
21,
28,
19,
14,
18,
20,
22,
16,
17,
23,
9,
11,
11,
9,
9,
6,
14,
7,
7,
1,
7,
2,
2,
5,
10,
9,
11,
7,
4,
4,
5,
4,
3,
0,
0,
1,
2,
6,
0,
0,
0,
0,
0,
0,
0,
0,
0,
0,
0,
0,
0,
0,
0,
0,
2,
2,
0,
0,
0,
0,
4,
4,
0,
0,
0,
0,
0,
0,
0,
0,
0,
0,
0,
1,
0,
0,
0,
0,
0,
0,
0,
0,
0,
0,
1,
0,
0,
0,
0,
0,
1,
0,
0,
0,
0,
0,
1,
0,
1,
1,
0,
0,
0,
0,
0,
0,
2,
1,
0,
0,
0,
0,
0,
2,
0,
0,
0,
0,
0,
0,
0,
2,
0,
1,
0,
0,
0,
0,
0,
0,
1,
0,
0,
0,
0,
0,
0,
0,
0,
0,
0,
0,
0,
0,
0,
0,
0,
0,
0,
0,
0,
2,
1,
0,
0,
0,
0,
0,
0,
0,
0,
0,
0,
0,
0,
0,
0,
4,
1,
0,
0,
0,
2,
0,
0,
0,
0,
0,
0,
0,
0,
0,
0,
0,
0,
0,
0,
0,
0,
1,
0,
0,
0,
0,
0,
1,
0,
0,
1,
0,
0,
0,
0,
0,
0,
0,
0,
0,
1,
0,
0,
0,
0,
0,
1,
0,
0,
3,
0,
0,
0,
0,
0,
1,
0,
0,
0,
0,
0,
0,
0,
1,
0,
0,
0,
1,
0,
0,
0,
0,
0,
0,
0,
1,
0,
0,
0,
1,
2,
0,
0,
0,
0,
0,
0,
0,
0,
0,
0,
0,
3,
1,
0,
0,
0,
0,
0,
0,
0,
0,
0,
0,
1,
0,
0,
0,
0,
1,
0,
0,
0,
0,
1,
0,
0,
2,
1,
1,
0,
0,
0,
0,
0,
0,
0,
0,
0,
0,
0,
0,
0,
0,
0,
0,
1,
1,
0,
0,
0,
0,
0,
0,
0,
0,
0,
0,
0,
0,
0,
0,
1,
0,
0,
0,
0,
0,
0,
0,
0,
0,
0,
0,
1,
0,
1,
0,
0,
0,
0,
0,
0,
0,
0,
1,
0,
0,
0,
0,
0,
0,
0,
0,
0,
1,
0,
0,
0,
0,
0,
0,
0,
0,
0,
0,
0,
0,
#ENDOFDATA   :