File: NeXLSpectrum/Pyrite fragments/Pyrite_1_C2_15kV10nA130kHz_86kHz_100s.msa
#FORMAT      : EMSA/MAS Spectral Data File
#VERSION     : 1.0
#TITLE       : Bruker Nano spectrum Acquisition
#DATE        : 23-AUG-2019
#TIME        : 10:49
#OWNER       : Bruker Nano
#NPOINTS     : 4096
#NCOLUMNS    : 1
#XUNITS      : eV
#YUNITS      : counts
#DATATYPE    : Y
#XPERCHAN    : 5.00257
#OFFSET      : -482.8305
#BEAMKV      : 15
#SIGNALTYPE  : EDS
#ELEVANGLE   : 40
#AZIMANGLE   : 45
#LIVETIME    : 100
#REALTIME    : 119.114
#PROBECUR    : 10
#TAUWIND     : 0
#TDEADLYR    : 0
#TACTLYR     : 0.045
#TALWIND     : 0.004
#CHOFFSET    : 0.0
#XLABEL      : Energy (eV)
#YLABEL      : Counts
#EDSDET      : SDUTW
##DET_HASH   : c6370f9e-cc72-7559-f57e-203d75c8942b
##CALIB_HASH : fcf71094-1a10-2882-685e-00197fff5925
##SAMPLE     : <BulkSample id="1">\n<mOrientation id="2">\n<double>0.0</double>\n<double>0.0</double>\n<double>-1.0</double>\n</mOrientation>\n</BulkSample>
#SPECTRUM    :
0,
0,
0,
0,
0,
0,
0,
0,
0,
0,
0,
0,
0,
0,
0,
0,
0,
0,
4,
5,
18,
19,
24,
23,
25,
27,
33,
204,
2494,
18342,
75606,
168484,
204826,
134939,
48891,
9778,
1212,
124,
0,
0,
99,
788,
874,
775,
623,
444,
492,
899,
1959,
3729,
5253,
5008,
3258,
1512,
656,
518,
673,
910,
1057,
1002,
830,
706,
809,
1262,
2167,
3787,
5836,
6433,
5551,
3698,
3085,
2907,
3733,
4234,
4193,
4500,
5981,
10293,
15820,
18445,
16290,
10925,
5872,
2914,
1732,
1476,
1291,
1292,
1232,
1321,
1307,
1180,
1284,
1263,
1311,
1256,
1295,
1341,
1390,
1364,
1478,
1462,
1511,
1507,
1542,
1543,
1529,
1543,
1595,
1685,
1721,
1669,
1773,
1811,
1881,
1881,
1954,
1952,
2026,
2040,
1982,
2054,
2096,
2096,
2091,
2193,
2224,
2216,
2255,
2334,
2409,
2406,
2421,
2508,
2430,
2406,
2398,
2411,
2394,
2287,
2346,
2392,
2441,
2513,
2403,
2496,
2624,
2656,
2675,
2653,
2739,
2711,
2745,
2595,
2661,
2707,
2745,
2754,
2653,
2833,
2762,
2848,
2929,
2926,
2946,
2986,
3015,
3155,
3221,
3210,
3168,
3161,
3162,
3043,
3034,
3151,
3303,
3796,
5049,
8131,
15247,
30789,
58285,
100034,
148402,
191282,
208065,
193682,
154409,
105309,
62463,
33118,
18323,
13203,
13238,
15039,
16182,
15859,
13633,
10473,
7294,
4834,
3206,
2186,
1761,
1603,
1542,
1496,
1454,
1463,
1495,
1499,
1414,
1439,
1456,
1494,
1542,
1493,
1463,
1489,
1509,
1507,
1519,
1483,
1497,
1498,
1477,
1495,
1536,
1523,
1579,
1529,
1580,
1543,
1522,
1564,
1553,
1563,
1578,
1524,
1537,
1597,
1512,
1505,
1559,
1516,
1487,
1570,
1621,
1503,
1523,
1477,
1547,
1569,
1547,
1564,
1513,
1537,
1538,
1546,
1540,
1517,
1457,
1494,
1544,
1480,
1595,
1503,
1485,
1490,
1485,
1531,
1520,
1503,
1520,
1504,
1498,
1491,
1530,
1461,
1520,
1535,
1521,
1511,
1461,
1514,
1450,
1462,
1377,
1499,
1490,
1441,
1491,
1441,
1411,
1415,
1448,
1492,
1443,
1474,
1375,
1456,
1434,
1393,
1413,
1452,
1411,
1406,
1440,
1417,
1362,
1401,
1370,
1373,
1392,
1374,
1396,
1417,
1382,
1378,
1382,
1332,
1313,
1369,
1323,
1366,
1412,
1257,
1316,
1344,
1222,
1244,
1340,
1277,
1280,
1277,
1237,
1240,
1242,
1154,
1130,
1134,
1134,
1091,
1118,
1161,
1155,
1182,
1164,
1164,
1175,
1205,
1166,
1177,
1177,
1217,
1203,
1251,
1210,
1187,
1175,
1272,
1263,
1204,
1234,
1213,
1206,
1148,
1140,
1170,
1150,
1185,
1131,
1210,
1214,
1201,
1141,
1148,
1130,
1174,
1163,
1149,
1129,
1146,
1129,
1185,
1105,
1085,
1066,
1082,
1101,
1109,
1108,
1064,
1099,
1099,
1054,
1006,
1062,
1040,
966,
1031,
1071,
1086,
1009,
1037,
977,
1075,
1032,
1005,
1035,
947,
1022,
1053,
1019,
992,
982,
942,
1038,
1030,
964,
981,
963,
993,
923,
1027,
989,
949,
972,
931,
1030,
955,
947,
930,
959,
997,
1012,
951,
973,
1037,
1017,
971,
1020,
1067,
1014,
1025,
1125,
1263,
1586,
2209,
3349,
5029,
7688,
11282,
16343,
21412,
26827,
31311,
33810,
34177,
32479,
28530,
23769,
18261,
13015,
9007,
5963,
3846,
2470,
1722,
1265,
1007,
934,
887,
853,
857,
893,
846,
871,
856,
870,
865,
802,
875,
807,
821,
856,
858,
842,
864,
866,
889,
1005,
1132,
1252,
1677,
1949,
2517,
3168,
3781,
4282,
4689,
5028,
4952,
4577,
4059,
3503,
2784,
2207,
1683,
1299,
1047,
896,
729,
634,
618,
613,
595,
599,
574,
587,
575,
558,
554,
590,
563,
609,
637,
636,
579,
596,
601,
600,
589,
588,
545,
624,
581,
534,
579,
578,
557,
530,
527,
558,
495,
552,
569,
525,
549,
541,
512,
587,
519,
545,
506,
551,
544,
532,
512,
539,
531,
511,
547,
505,
526,
553,
518,
531,
553,
509,
529,
487,
486,
461,
515,
482,
534,
463,
508,
483,
459,
485,
541,
504,
479,
442,
483,
507,
496,
487,
487,
449,
443,
445,
450,
437,
449,
514,
415,
479,
460,
426,
471,
445,
424,
419,
421,
436,
411,
423,
427,
421,
412,
404,
434,
415,
417,
403,
392,
407,
406,
419,
410,
426,
425,
408,
404,
432,
432,
447,
412,
436,
411,
384,
420,
381,
368,
396,
428,
435,
397,
422,
391,
378,
367,
408,
406,
393,
399,
375,
376,
388,
382,
391,
383,
389,
364,
363,
365,
364,
354,
364,
354,
348,
360,
379,
374,
358,
362,
346,
353,
366,
327,
330,
372,
366,
330,
346,
325,
374,
350,
337,
327,
353,
325,
330,
347,
332,
314,
335,
313,
311,
356,
314,
286,
343,
319,
326,
307,
318,
318,
298,
279,
288,
292,
284,
324,
342,
305,
256,
293,
289,
266,
275,
272,
291,
278,
281,
255,
256,
279,
284,
275,
275,
254,
253,
255,
240,
276,
277,
264,
272,
288,
273,
279,
269,
274,
234,
274,
245,
237,
222,
235,
277,
237,
240,
251,
251,
222,
241,
197,
217,
229,
246,
230,
228,
265,
237,
253,
226,
222,
239,
220,
234,
213,
216,
221,
223,
220,
229,
207,
192,
208,
199,
210,
206,
200,
205,
211,
209,
225,
180,
230,
197,
201,
205,
202,
204,
203,
185,
197,
182,
174,
183,
199,
189,
209,
185,
191,
174,
183,
180,
176,
164,
176,
166,
167,
194,
184,
171,
140,
175,
152,
185,
169,
140,
179,
179,
153,
167,
149,
160,
163,
167,
179,
156,
168,
177,
164,
174,
128,
154,
145,
167,
151,
135,
142,
145,
151,
122,
168,
120,
162,
136,
122,
123,
123,
118,
137,
132,
149,
122,
132,
129,
128,
129,
108,
120,
103,
116,
123,
120,
108,
117,
107,
117,
118,
98,
97,
110,
111,
112,
122,
97,
114,
103,
136,
107,
90,
116,
100,
104,
108,
109,
86,
94,
101,
96,
91,
94,
87,
98,
91,
84,
81,
86,
90,
76,
68,
71,
75,
79,
70,
88,
94,
92,
92,
83,
74,
81,
71,
65,
77,
64,
76,
64,
67,
71,
60,
62,
69,
68,
73,
58,
74,
59,
46,
64,
57,
43,
57,
66,
40,
54,
49,
61,
51,
52,
46,
54,
34,
38,
58,
59,
56,
56,
55,
44,
43,
44,
37,
46,
32,
44,
49,
52,
39,
43,
36,
41,
40,
32,
36,
28,
33,
29,
30,
36,
34,
31,
24,
27,
35,
27,
35,
32,
28,
21,
27,
38,
30,
33,
23,
32,
29,
24,
26,
17,
23,
28,
16,
27,
20,
12,
11,
13,
18,
24,
10,
10,
17,
21,
14,
19,
11,
11,
15,
10,
11,
11,
17,
10,
13,
10,
10,
10,
12,
4,
5,
9,
15,
10,
5,
6,
3,
4,
4,
4,
3,
3,
0,
1,
2,
2,
0,
3,
3,
3,
2,
1,
2,
0,
0,
0,
0,
0,
2,
1,
2,
2,
2,
0,
1,
0,
0,
0,
0,
0,
0,
0,
0,
0,
0,
0,
0,
2,
0,
0,
2,
0,
0,
0,
0,
2,
0,
0,
0,
1,
0,
0,
0,
1,
1,
0,
1,
0,
0,
0,
0,
0,
0,
0,
0,
0,
1,
0,
3,
0,
0,
2,
1,
1,
0,
0,
0,
0,
0,
1,
0,
0,
0,
0,
1,
0,
0,
0,
0,
0,
0,
0,
0,
0,
0,
0,
2,
0,
0,
0,
0,
0,
0,
0,
0,
0,
0,
0,
1,
0,
0,
0,
1,
0,
0,
0,
0,
2,
0,
0,
0,
1,
0,
0,
1,
0,
0,
2,
2,
1,
0,
1,
0,
0,
1,
0,
0,
0,
0,
0,
0,
0,
0,
0,
0,
0,
0,
0,
0,
0,
1,
0,
0,
0,
0,
0,
0,
0,
0,
0,
0,
2,
1,
0,
0,
2,
0,
0,
0,
0,
0,
0,
0,
0,
2,
0,
0,
0,
0,
0,
0,
0,
0,
1,
0,
0,
0,
0,
0,
0,
0,
0,
0,
0,
0,
0,
0,
0,
0,
0,
1,
0,
0,
0,
0,
0,
0,
2,
0,
0,
0,
0,
0,
0,
0,
0,
0,
0,
0,
0,
0,
0,
0,
1,
0,
0,
0,
0,
1,
0,
0,
0,
0,
0,
0,
1,
0,
0,
0,
0,
0,
0,
0,
0,
0,
0,
0,
0,
0,
0,
0,
0,
0,
0,
0,
0,
0,
0,
0,
0,
0,
0,
0,
0,
0,
0,
0,
0,
0,
0,
0,
0,
0,
0,
0,
0,
2,
0,
0,
0,
0,
1,
0,
0,
2,
0,
0,
1,
0,
0,
0,
0,
0,
0,
0,
0,
0,
0,
1,
2,
0,
0,
0,
0,
0,
1,
0,
0,
0,
0,
0,
0,
0,
0,
1,
0,
0,
0,
0,
0,
1,
0,
0,
0,
1,
0,
0,
0,
0,
0,
1,
0,
1,
0,
0,
0,
0,
#ENDOFDATA   :