File: NeXLSpectrum/Pyrite fragments/Pyrite_1_K2_15kV10nA130kHz_2kHz_100s.msa
#FORMAT      : EMSA/MAS Spectral Data File
#VERSION     : 1.0
#TITLE       : Bruker Nano spectrum Acquisition
#DATE        : 23-AUG-2019
#TIME        : 00:45
#OWNER       : Bruker Nano
#NPOINTS     : 4096
#NCOLUMNS    : 1
#XUNITS      : eV
#YUNITS      : counts
#DATATYPE    : Y
#XPERCHAN    : 5.00257
#OFFSET      : -482.8305
#BEAMKV      : 15
#SIGNALTYPE  : EDS
#ELEVANGLE   : 40
#AZIMANGLE   : 45
#LIVETIME    : 99.999
#REALTIME    : 100.111
#PROBECUR    : 10
#TAUWIND     : 0
#TDEADLYR    : 0
#TACTLYR     : 0.045
#TALWIND     : 0.004
#CHOFFSET    : 0.0
#XLABEL      : Energy (eV)
#YLABEL      : Counts
#EDSDET      : SDUTW
##DET_HASH   : c6370f9e-cc72-7559-f57e-203d75c8942b
##CALIB_HASH : fcf71094-1a10-2882-685e-00197fff5925
##SAMPLE     : <BulkSample id="1">\n<mOrientation id="2">\n<double>0.0</double>\n<double>0.0</double>\n<double>-1.0</double>\n</mOrientation>\n</BulkSample>
#SPECTRUM    :
0,
0,
0,
0,
0,
0,
0,
0,
0,
0,
0,
0,
0,
0,
0,
0,
0,
0,
0,
0,
0,
0,
0,
0,
0,
0,
0,
7,
105,
916,
3596,
8472,
10400,
6890,
2411,
467,
50,
2,
0,
0,
0,
94,
96,
91,
55,
58,
115,
305,
902,
2004,
2888,
2885,
1752,
734,
210,
72,
54,
75,
78,
73,
61,
63,
60,
105,
172,
316,
525,
559,
520,
330,
212,
191,
232,
251,
245,
262,
361,
594,
872,
1083,
949,
653,
355,
184,
114,
128,
112,
121,
166,
161,
132,
137,
119,
116,
114,
122,
103,
97,
104,
100,
90,
104,
95,
83,
86,
111,
102,
94,
104,
91,
102,
97,
85,
83,
101,
108,
109,
107,
110,
124,
98,
94,
91,
104,
98,
102,
85,
89,
88,
112,
77,
90,
85,
105,
83,
102,
89,
79,
90,
83,
75,
85,
98,
89,
74,
92,
103,
111,
107,
101,
105,
90,
90,
91,
84,
88,
76,
91,
79,
75,
69,
83,
87,
79,
68,
87,
97,
90,
99,
100,
75,
75,
72,
65,
74,
86,
82,
88,
132,
177,
297,
639,
1085,
1946,
2802,
3647,
3897,
3706,
2961,
1985,
1160,
672,
357,
257,
236,
277,
344,
306,
301,
225,
149,
118,
84,
69,
57,
61,
48,
51,
39,
48,
42,
57,
35,
42,
42,
38,
48,
52,
45,
46,
45,
39,
37,
31,
40,
48,
45,
44,
36,
33,
39,
59,
47,
45,
42,
46,
44,
44,
57,
50,
40,
44,
36,
37,
45,
43,
43,
41,
45,
45,
44,
42,
33,
39,
37,
28,
41,
37,
36,
35,
35,
44,
39,
37,
38,
31,
44,
38,
35,
38,
32,
32,
40,
42,
44,
47,
55,
58,
51,
62,
44,
43,
35,
32,
32,
36,
38,
36,
39,
28,
31,
33,
24,
26,
37,
33,
33,
36,
33,
34,
29,
33,
25,
38,
29,
35,
40,
34,
34,
27,
27,
34,
29,
24,
32,
28,
20,
22,
24,
27,
33,
24,
24,
27,
38,
31,
39,
24,
37,
29,
30,
33,
31,
33,
34,
42,
30,
30,
20,
28,
23,
23,
32,
18,
16,
25,
25,
20,
17,
23,
22,
26,
32,
33,
22,
30,
26,
20,
23,
29,
31,
34,
20,
17,
18,
31,
19,
18,
27,
23,
17,
21,
19,
25,
22,
30,
27,
29,
24,
20,
21,
28,
24,
17,
24,
10,
15,
17,
30,
32,
26,
33,
19,
22,
18,
25,
22,
29,
23,
22,
35,
16,
25,
19,
17,
25,
24,
27,
15,
22,
23,
23,
21,
16,
19,
20,
20,
18,
20,
21,
26,
22,
18,
24,
25,
24,
24,
19,
16,
31,
21,
22,
23,
23,
18,
21,
28,
24,
23,
21,
27,
17,
26,
36,
30,
32,
36,
30,
40,
51,
82,
152,
203,
325,
482,
576,
682,
886,
902,
945,
902,
738,
616,
483,
345,
228,
166,
123,
80,
46,
38,
31,
23,
31,
29,
26,
33,
26,
30,
26,
26,
17,
31,
41,
26,
28,
33,
30,
26,
26,
27,
30,
38,
48,
53,
53,
79,
106,
135,
158,
179,
206,
189,
186,
154,
168,
133,
109,
52,
61,
53,
26,
19,
23,
10,
14,
12,
6,
6,
12,
15,
11,
13,
11,
14,
9,
11,
17,
17,
16,
17,
14,
10,
15,
12,
7,
13,
10,
18,
12,
10,
16,
10,
11,
9,
13,
11,
13,
12,
8,
9,
9,
10,
5,
9,
7,
10,
8,
9,
8,
13,
12,
6,
17,
10,
15,
11,
14,
16,
22,
12,
6,
19,
8,
13,
9,
10,
7,
9,
6,
13,
13,
14,
6,
14,
8,
7,
6,
8,
7,
6,
8,
6,
13,
11,
13,
12,
15,
10,
10,
11,
10,
6,
9,
9,
14,
12,
7,
8,
9,
12,
9,
6,
11,
4,
8,
9,
10,
12,
9,
9,
5,
9,
7,
4,
11,
12,
12,
7,
12,
13,
11,
10,
8,
13,
3,
8,
7,
9,
15,
15,
3,
9,
9,
9,
7,
16,
7,
11,
9,
2,
6,
6,
3,
10,
12,
8,
7,
6,
7,
12,
13,
14,
16,
7,
13,
13,
13,
14,
8,
17,
9,
12,
14,
12,
12,
10,
17,
10,
8,
12,
7,
11,
8,
11,
8,
12,
7,
13,
8,
19,
11,
8,
4,
11,
9,
6,
11,
16,
14,
9,
15,
7,
14,
14,
10,
7,
8,
16,
9,
18,
5,
12,
16,
11,
9,
9,
10,
9,
8,
9,
13,
12,
12,
11,
10,
16,
11,
13,
4,
12,
15,
6,
13,
9,
13,
8,
8,
11,
15,
15,
13,
10,
6,
11,
11,
12,
6,
7,
17,
7,
19,
15,
7,
7,
11,
14,
13,
8,
14,
13,
13,
16,
12,
11,
16,
10,
15,
15,
11,
10,
14,
19,
14,
10,
7,
5,
12,
10,
8,
15,
11,
15,
16,
10,
18,
14,
9,
12,
14,
10,
8,
14,
18,
16,
13,
11,
7,
11,
8,
5,
13,
11,
12,
17,
8,
17,
10,
9,
11,
9,
15,
9,
16,
14,
13,
12,
10,
6,
10,
7,
10,
14,
10,
15,
15,
8,
15,
12,
19,
14,
12,
8,
14,
14,
19,
15,
14,
7,
11,
12,
14,
7,
11,
7,
7,
6,
7,
11,
8,
17,
17,
8,
14,
15,
15,
11,
11,
11,
9,
19,
13,
11,
7,
9,
11,
10,
17,
12,
11,
7,
11,
10,
8,
13,
10,
18,
9,
9,
12,
8,
12,
7,
13,
9,
12,
8,
8,
11,
9,
16,
4,
12,
12,
11,
7,
11,
8,
7,
13,
7,
4,
5,
6,
11,
12,
12,
7,
8,
8,
12,
5,
7,
11,
8,
10,
12,
12,
13,
8,
6,
7,
5,
8,
6,
14,
7,
5,
10,
5,
5,
14,
7,
7,
5,
11,
8,
6,
10,
13,
8,
6,
5,
3,
2,
6,
8,
4,
4,
6,
8,
4,
12,
8,
9,
8,
2,
4,
8,
8,
9,
5,
8,
9,
7,
5,
4,
5,
4,
5,
3,
9,
3,
3,
5,
8,
3,
4,
5,
7,
8,
3,
3,
7,
4,
7,
1,
2,
6,
7,
1,
3,
5,
3,
6,
3,
4,
0,
11,
2,
2,
3,
4,
1,
3,
5,
2,
1,
3,
1,
0,
11,
5,
2,
1,
4,
0,
2,
1,
4,
1,
7,
1,
1,
1,
2,
1,
2,
1,
1,
1,
2,
1,
1,
0,
1,
0,
0,
3,
0,
0,
1,
0,
0,
0,
0,
0,
0,
0,
0,
0,
0,
0,
0,
0,
0,
0,
0,
0,
0,
0,
0,
0,
0,
0,
0,
0,
0,
0,
0,
0,
0,
0,
0,
0,
0,
0,
0,
0,
0,
0,
0,
0,
0,
0,
0,
0,
0,
0,
0,
0,
0,
0,
0,
0,
0,
0,
0,
0,
0,
0,
0,
0,
0,
0,
0,
0,
0,
0,
0,
0,
0,
0,
0,
0,
0,
0,
0,
0,
0,
0,
0,
0,
0,
0,
0,
0,
0,
0,
0,
0,
0,
0,
0,
0,
0,
0,
0,
0,
0,
0,
0,
0,
0,
0,
0,
0,
0,
0,
0,
0,
0,
0,
0,
0,
0,
0,
0,
0,
0,
0,
0,
0,
0,
0,
0,
0,
0,
0,
0,
0,
0,
0,
0,
0,
0,
0,
0,
0,
0,
0,
0,
0,
0,
0,
0,
0,
0,
0,
0,
0,
0,
0,
0,
0,
0,
0,
0,
0,
0,
0,
0,
0,
0,
0,
0,
0,
0,
0,
0,
0,
0,
0,
0,
0,
0,
0,
0,
0,
0,
0,
0,
0,
0,
0,
0,
0,
0,
0,
0,
0,
0,
0,
0,
0,
0,
0,
0,
0,
0,
0,
0,
0,
0,
0,
0,
0,
0,
0,
0,
0,
1,
0,
0,
0,
0,
0,
0,
0,
0,
0,
0,
0,
0,
0,
0,
0,
0,
0,
0,
0,
0,
0,
0,
0,
0,
0,
0,
0,
0,
0,
0,
0,
0,
0,
0,
0,
0,
0,
0,
0,
0,
0,
0,
0,
0,
0,
0,
0,
0,
0,
0,
0,
0,
0,
0,
0,
0,
0,
0,
0,
0,
0,
0,
0,
0,
0,
0,
0,
0,
0,
0,
0,
0,
0,
0,
0,
0,
0,
0,
0,
0,
0,
0,
0,
0,
0,
0,
0,
0,
0,
0,
0,
0,
0,
0,
0,
0,
0,
0,
0,
0,
0,
0,
0,
0,
0,
0,
0,
0,
0,
0,
0,
0,
0,
0,
#ENDOFDATA   :