File: NeXLSpectrum/Pyrite fragments/Pyrite_1_A2_15kV10nA130kHz_8kHz_100s.msa
#FORMAT      : EMSA/MAS Spectral Data File
#VERSION     : 1.0
#TITLE       : Bruker Nano spectrum Acquisition
#DATE        : 23-AUG-2019
#TIME        : 10:32
#OWNER       : Bruker Nano
#NPOINTS     : 4096
#NCOLUMNS    : 1
#XUNITS      : eV
#YUNITS      : counts
#DATATYPE    : Y
#XPERCHAN    : 5.00257
#OFFSET      : -482.8305
#BEAMKV      : 15
#SIGNALTYPE  : EDS
#ELEVANGLE   : 40
#AZIMANGLE   : 45
#LIVETIME    : 100
#REALTIME    : 101.174
#PROBECUR    : 10
#TAUWIND     : 0
#TDEADLYR    : 0
#TACTLYR     : 0.045
#TALWIND     : 0.004
#CHOFFSET    : 0.0
#XLABEL      : Energy (eV)
#YLABEL      : Counts
#EDSDET      : SDUTW
##DET_HASH   : c6370f9e-cc72-7559-f57e-203d75c8942b
##CALIB_HASH : fcf71094-1a10-2882-685e-00197fff5925
##SAMPLE     : <BulkSample id="1">\n<mOrientation id="2">\n<double>0.0</double>\n<double>0.0</double>\n<double>-1.0</double>\n</mOrientation>\n</BulkSample>
#SPECTRUM    :
0,
0,
0,
0,
0,
0,
0,
0,
0,
0,
0,
0,
0,
0,
0,
0,
0,
0,
0,
0,
0,
0,
1,
0,
0,
0,
1,
9,
187,
1418,
6097,
13839,
16938,
11270,
4030,
792,
62,
6,
0,
0,
0,
107,
135,
153,
171,
372,
1219,
4412,
13410,
29287,
42635,
41606,
26005,
10638,
2777,
551,
150,
132,
142,
126,
107,
110,
129,
213,
411,
779,
1180,
1301,
1098,
668,
341,
274,
280,
312,
297,
320,
396,
647,
934,
1110,
1039,
722,
489,
348,
261,
235,
261,
285,
338,
318,
312,
304,
258,
288,
273,
241,
266,
250,
237,
267,
275,
288,
248,
237,
260,
284,
271,
271,
256,
261,
261,
263,
277,
284,
270,
278,
270,
267,
238,
274,
270,
246,
266,
267,
255,
274,
264,
264,
241,
269,
277,
254,
287,
246,
232,
255,
236,
222,
226,
228,
221,
220,
243,
209,
224,
229,
262,
264,
258,
239,
253,
236,
212,
228,
223,
216,
223,
183,
217,
185,
206,
229,
211,
221,
217,
202,
181,
201,
200,
220,
182,
191,
188,
179,
192,
198,
200,
213,
228,
263,
410,
670,
1200,
1861,
2729,
3499,
3953,
3593,
2838,
1966,
1159,
667,
425,
332,
337,
374,
395,
361,
387,
312,
254,
212,
178,
175,
152,
151,
135,
140,
139,
138,
127,
126,
134,
130,
125,
129,
138,
134,
125,
122,
126,
121,
120,
126,
120,
112,
111,
112,
114,
114,
111,
122,
124,
129,
132,
113,
120,
95,
101,
109,
114,
112,
90,
107,
107,
95,
109,
99,
133,
90,
118,
105,
117,
95,
107,
105,
95,
88,
90,
89,
96,
99,
81,
95,
91,
88,
87,
95,
76,
84,
100,
91,
107,
96,
95,
106,
116,
118,
125,
118,
124,
110,
85,
82,
92,
78,
81,
87,
96,
93,
67,
73,
82,
73,
92,
88,
77,
67,
78,
79,
74,
78,
75,
58,
70,
73,
80,
84,
71,
82,
51,
67,
68,
67,
61,
90,
61,
66,
66,
60,
52,
73,
66,
74,
57,
70,
64,
57,
59,
60,
65,
64,
57,
70,
68,
58,
54,
56,
71,
69,
53,
52,
55,
59,
72,
60,
59,
65,
52,
50,
65,
43,
59,
55,
43,
54,
52,
62,
52,
58,
59,
57,
54,
40,
53,
56,
51,
50,
46,
57,
59,
50,
55,
44,
38,
47,
52,
50,
41,
55,
53,
50,
55,
36,
42,
47,
56,
54,
52,
47,
45,
48,
51,
48,
42,
43,
42,
52,
41,
46,
36,
45,
35,
47,
35,
39,
42,
37,
49,
52,
44,
35,
41,
55,
33,
34,
28,
31,
41,
39,
51,
50,
38,
43,
41,
52,
40,
33,
36,
34,
39,
37,
50,
36,
43,
33,
42,
34,
43,
50,
40,
46,
41,
49,
51,
40,
52,
63,
60,
65,
83,
126,
190,
251,
330,
420,
495,
653,
599,
581,
600,
524,
476,
351,
245,
190,
117,
95,
67,
51,
46,
39,
39,
37,
27,
39,
35,
29,
36,
32,
43,
28,
30,
33,
30,
36,
33,
36,
41,
32,
30,
47,
28,
42,
41,
53,
62,
82,
76,
94,
96,
121,
115,
107,
105,
91,
77,
70,
50,
37,
46,
34,
29,
32,
15,
32,
16,
24,
24,
32,
28,
30,
20,
40,
29,
25,
35,
22,
41,
43,
39,
31,
31,
33,
22,
27,
24,
17,
26,
23,
20,
29,
23,
21,
27,
25,
26,
31,
17,
19,
27,
26,
22,
34,
20,
23,
21,
29,
20,
24,
21,
27,
24,
17,
23,
24,
29,
16,
35,
25,
21,
22,
19,
16,
20,
37,
25,
21,
17,
28,
20,
27,
17,
19,
24,
17,
16,
19,
22,
15,
18,
27,
19,
16,
19,
17,
13,
18,
15,
18,
12,
18,
20,
19,
16,
22,
13,
17,
18,
23,
18,
17,
12,
16,
15,
11,
17,
19,
14,
9,
15,
24,
17,
16,
10,
19,
8,
12,
12,
15,
19,
16,
10,
13,
19,
17,
13,
14,
10,
14,
12,
12,
8,
11,
18,
9,
17,
11,
8,
12,
14,
19,
15,
15,
19,
15,
11,
18,
10,
12,
25,
13,
6,
10,
9,
12,
17,
13,
13,
17,
22,
11,
14,
13,
8,
10,
12,
13,
10,
19,
14,
10,
12,
10,
13,
21,
7,
14,
14,
9,
5,
8,
17,
6,
9,
5,
14,
10,
8,
11,
8,
17,
8,
9,
8,
8,
9,
12,
14,
17,
11,
7,
7,
7,
6,
8,
12,
11,
3,
9,
14,
9,
6,
9,
5,
8,
11,
5,
11,
10,
10,
9,
11,
15,
8,
5,
8,
8,
14,
7,
6,
12,
11,
7,
9,
6,
7,
5,
11,
5,
8,
4,
12,
12,
11,
10,
14,
6,
10,
7,
6,
7,
4,
9,
10,
8,
6,
7,
8,
6,
7,
3,
6,
5,
7,
12,
6,
9,
9,
9,
5,
5,
12,
11,
7,
8,
5,
9,
9,
6,
12,
8,
4,
11,
6,
10,
10,
11,
8,
9,
4,
10,
8,
11,
8,
7,
10,
13,
5,
11,
6,
8,
4,
9,
6,
13,
5,
9,
8,
6,
6,
4,
11,
5,
9,
8,
4,
8,
7,
8,
7,
4,
9,
9,
8,
7,
7,
8,
4,
10,
8,
6,
11,
8,
9,
6,
8,
9,
8,
5,
9,
4,
5,
1,
7,
5,
3,
7,
8,
4,
6,
9,
5,
7,
5,
5,
4,
6,
6,
7,
5,
2,
3,
6,
2,
6,
4,
3,
2,
0,
5,
2,
5,
3,
5,
5,
6,
5,
6,
7,
4,
5,
6,
3,
6,
6,
3,
3,
6,
1,
3,
9,
7,
5,
7,
4,
5,
4,
4,
5,
1,
8,
4,
6,
11,
7,
5,
3,
5,
10,
1,
6,
4,
7,
4,
7,
5,
0,
2,
5,
1,
4,
3,
2,
6,
5,
5,
4,
1,
1,
5,
3,
0,
2,
2,
5,
3,
2,
1,
6,
6,
4,
6,
3,
4,
5,
6,
3,
5,
3,
4,
3,
3,
1,
4,
4,
7,
1,
1,
2,
5,
4,
2,
3,
1,
6,
2,
3,
2,
10,
2,
1,
2,
3,
2,
1,
3,
2,
0,
2,
2,
2,
4,
1,
0,
4,
2,
0,
2,
1,
2,
0,
1,
0,
3,
2,
1,
2,
3,
2,
1,
1,
1,
0,
1,
2,
2,
0,
4,
1,
1,
0,
1,
0,
0,
0,
1,
0,
0,
1,
1,
0,
0,
0,
0,
0,
1,
0,
0,
0,
0,
0,
0,
1,
0,
0,
0,
0,
0,
0,
0,
0,
0,
0,
0,
0,
0,
0,
0,
0,
0,
0,
0,
0,
0,
0,
0,
0,
0,
0,
0,
0,
0,
0,
0,
0,
0,
0,
0,
0,
0,
0,
0,
0,
0,
0,
0,
0,
0,
0,
0,
0,
0,
0,
0,
0,
0,
0,
0,
0,
0,
0,
0,
0,
0,
0,
0,
0,
0,
0,
0,
0,
0,
0,
0,
0,
0,
0,
0,
0,
0,
0,
0,
0,
0,
0,
0,
0,
0,
0,
0,
0,
0,
0,
0,
0,
0,
0,
0,
0,
0,
0,
0,
0,
0,
0,
0,
0,
0,
0,
0,
0,
0,
0,
0,
0,
0,
0,
0,
0,
0,
0,
0,
0,
0,
0,
0,
0,
0,
0,
0,
0,
0,
0,
0,
0,
0,
0,
0,
0,
0,
0,
0,
0,
0,
0,
0,
0,
0,
0,
0,
0,
0,
0,
0,
0,
0,
0,
0,
0,
0,
0,
0,
0,
0,
0,
0,
0,
0,
0,
0,
0,
0,
0,
0,
0,
0,
0,
0,
0,
0,
0,
0,
0,
0,
0,
0,
0,
0,
0,
0,
0,
0,
0,
0,
0,
0,
0,
0,
0,
0,
0,
0,
0,
0,
0,
0,
0,
0,
0,
0,
0,
0,
0,
0,
0,
0,
0,
0,
0,
0,
0,
0,
0,
0,
0,
0,
0,
0,
0,
0,
0,
0,
0,
0,
0,
0,
0,
0,
0,
0,
0,
0,
0,
0,
0,
0,
0,
0,
0,
0,
0,
0,
0,
0,
0,
0,
0,
0,
0,
0,
0,
0,
0,
0,
0,
0,
0,
0,
0,
0,
0,
0,
0,
0,
0,
0,
0,
0,
0,
0,
0,
0,
0,
0,
0,
0,
0,
0,
0,
0,
0,
0,
0,
0,
0,
0,
0,
0,
0,
0,
0,
0,
0,
0,
0,
0,
0,
0,
0,
0,
0,
0,
0,
0,
0,
0,
0,
0,
0,
0,
0,
0,
0,
0,
0,
#ENDOFDATA   :