File: NeXLSpectrum/Pyrite fragments/Pyrite_1_K3_15kV10nA130kHz_2kHz_100s.msa
#FORMAT      : EMSA/MAS Spectral Data File
#VERSION     : 1.0
#TITLE       : Bruker Nano spectrum Acquisition
#DATE        : 23-AUG-2019
#TIME        : 00:47
#OWNER       : Bruker Nano
#NPOINTS     : 4096
#NCOLUMNS    : 1
#XUNITS      : eV
#YUNITS      : counts
#DATATYPE    : Y
#XPERCHAN    : 5.00257
#OFFSET      : -482.8305
#BEAMKV      : 15
#SIGNALTYPE  : EDS
#ELEVANGLE   : 40
#AZIMANGLE   : 45
#LIVETIME    : 99.999
#REALTIME    : 100.038
#PROBECUR    : 10
#TAUWIND     : 0
#TDEADLYR    : 0
#TACTLYR     : 0.045
#TALWIND     : 0.004
#CHOFFSET    : 0.0
#XLABEL      : Energy (eV)
#YLABEL      : Counts
#EDSDET      : SDUTW
##DET_HASH   : c6370f9e-cc72-7559-f57e-203d75c8942b
##CALIB_HASH : fcf71094-1a10-2882-685e-00197fff5925
##SAMPLE     : <BulkSample id="1">\n<mOrientation id="2">\n<double>0.0</double>\n<double>0.0</double>\n<double>-1.0</double>\n</mOrientation>\n</BulkSample>
#SPECTRUM    :
0,
0,
0,
0,
0,
0,
0,
0,
0,
0,
0,
0,
0,
0,
0,
0,
0,
0,
0,
0,
0,
0,
0,
0,
0,
0,
0,
7,
103,
876,
3549,
8331,
10258,
6891,
2458,
470,
47,
1,
0,
0,
0,
80,
83,
59,
48,
36,
80,
225,
619,
1346,
1996,
1910,
1228,
534,
140,
48,
44,
48,
50,
54,
59,
42,
40,
69,
142,
243,
364,
421,
327,
247,
164,
130,
181,
179,
192,
187,
272,
462,
668,
755,
739,
502,
247,
143,
108,
83,
106,
127,
115,
127,
135,
97,
81,
95,
96,
83,
72,
79,
59,
61,
64,
78,
67,
72,
70,
71,
75,
59,
72,
52,
74,
67,
68,
66,
65,
78,
86,
81,
87,
69,
92,
82,
73,
60,
68,
66,
64,
72,
75,
72,
78,
80,
71,
74,
62,
59,
63,
71,
73,
64,
74,
71,
68,
51,
59,
70,
47,
66,
78,
75,
69,
63,
64,
70,
75,
74,
62,
45,
62,
69,
53,
58,
65,
66,
59,
79,
51,
71,
56,
56,
56,
57,
68,
49,
50,
68,
51,
84,
95,
131,
215,
420,
774,
1384,
2124,
2604,
2910,
2801,
2169,
1452,
888,
446,
267,
179,
195,
203,
237,
221,
186,
156,
106,
90,
59,
40,
35,
50,
34,
40,
35,
37,
38,
35,
40,
35,
37,
35,
32,
37,
38,
35,
27,
23,
34,
31,
37,
33,
27,
34,
29,
29,
31,
30,
40,
32,
29,
35,
28,
25,
34,
30,
22,
37,
25,
29,
28,
22,
31,
38,
28,
34,
29,
30,
36,
21,
28,
25,
34,
31,
23,
21,
33,
23,
29,
28,
33,
33,
27,
31,
23,
24,
23,
26,
24,
33,
26,
30,
48,
36,
37,
44,
45,
37,
31,
38,
30,
20,
24,
10,
19,
22,
24,
22,
29,
19,
25,
25,
23,
28,
24,
17,
24,
19,
28,
25,
23,
17,
20,
21,
25,
21,
23,
17,
26,
20,
20,
25,
18,
20,
21,
20,
19,
17,
21,
15,
22,
19,
21,
23,
17,
25,
19,
27,
23,
30,
28,
22,
22,
31,
19,
19,
22,
19,
26,
24,
17,
15,
18,
18,
18,
19,
18,
16,
18,
21,
16,
17,
22,
15,
26,
23,
16,
22,
8,
20,
18,
24,
19,
17,
13,
16,
20,
20,
19,
15,
27,
20,
15,
16,
19,
16,
15,
26,
22,
16,
26,
19,
27,
9,
30,
25,
15,
24,
17,
20,
24,
23,
27,
17,
14,
17,
17,
24,
19,
15,
16,
23,
20,
27,
18,
23,
22,
23,
17,
19,
18,
26,
22,
17,
21,
25,
17,
20,
14,
22,
18,
21,
18,
24,
16,
23,
19,
21,
24,
17,
33,
18,
27,
18,
20,
16,
24,
27,
31,
23,
25,
33,
30,
39,
50,
59,
95,
161,
266,
353,
522,
658,
816,
934,
1006,
1047,
941,
908,
742,
522,
378,
292,
145,
102,
70,
55,
34,
34,
32,
27,
24,
27,
22,
26,
25,
18,
28,
29,
40,
42,
39,
33,
42,
36,
39,
33,
31,
37,
41,
53,
60,
79,
109,
112,
156,
176,
192,
200,
218,
227,
206,
171,
162,
104,
91,
52,
35,
32,
26,
13,
10,
9,
12,
8,
9,
2,
8,
6,
12,
12,
4,
11,
16,
8,
12,
14,
13,
21,
11,
11,
12,
13,
8,
11,
15,
10,
14,
9,
7,
6,
13,
14,
18,
11,
6,
11,
12,
10,
10,
4,
15,
8,
9,
14,
9,
10,
6,
11,
6,
7,
12,
13,
7,
9,
11,
10,
6,
14,
6,
7,
7,
10,
9,
6,
14,
2,
6,
11,
14,
15,
12,
10,
16,
9,
4,
13,
11,
14,
10,
17,
13,
13,
6,
12,
15,
7,
10,
10,
8,
10,
13,
13,
9,
12,
15,
7,
11,
16,
5,
11,
15,
10,
7,
11,
9,
10,
10,
9,
18,
6,
8,
7,
15,
8,
9,
13,
10,
10,
6,
12,
10,
13,
8,
8,
13,
9,
14,
15,
9,
7,
13,
5,
14,
6,
10,
13,
16,
15,
6,
18,
5,
9,
7,
12,
13,
5,
6,
9,
11,
11,
14,
19,
10,
11,
8,
11,
10,
13,
12,
11,
11,
12,
12,
16,
15,
10,
12,
4,
14,
15,
9,
9,
20,
15,
13,
11,
7,
14,
8,
7,
8,
11,
8,
16,
19,
12,
11,
9,
16,
12,
8,
18,
13,
7,
8,
12,
13,
17,
13,
12,
17,
9,
12,
11,
8,
11,
14,
17,
14,
14,
15,
19,
16,
9,
15,
8,
15,
14,
12,
15,
12,
8,
7,
15,
17,
14,
14,
14,
8,
18,
11,
9,
17,
9,
18,
16,
15,
13,
11,
8,
16,
11,
18,
11,
12,
14,
16,
10,
15,
14,
19,
9,
16,
16,
18,
10,
9,
11,
16,
7,
13,
6,
16,
12,
11,
14,
12,
8,
13,
14,
11,
16,
15,
11,
15,
17,
8,
12,
15,
19,
7,
14,
23,
26,
11,
7,
15,
13,
12,
16,
7,
13,
15,
13,
21,
18,
15,
13,
7,
7,
9,
20,
9,
15,
17,
13,
5,
19,
9,
15,
13,
11,
8,
8,
15,
14,
17,
8,
14,
16,
12,
17,
14,
13,
16,
20,
9,
8,
10,
18,
11,
10,
16,
8,
12,
6,
17,
12,
13,
14,
10,
16,
8,
10,
6,
12,
13,
16,
10,
10,
12,
14,
16,
8,
14,
11,
12,
18,
7,
12,
6,
15,
12,
7,
15,
16,
8,
6,
16,
12,
12,
12,
10,
14,
9,
13,
14,
12,
11,
10,
14,
11,
9,
10,
13,
5,
7,
14,
13,
8,
7,
9,
13,
14,
13,
10,
9,
10,
7,
8,
10,
8,
11,
11,
8,
11,
8,
10,
8,
9,
7,
11,
12,
8,
8,
13,
7,
7,
10,
3,
9,
8,
11,
11,
6,
5,
11,
8,
10,
8,
13,
9,
6,
13,
4,
14,
5,
9,
13,
5,
11,
8,
6,
6,
5,
5,
2,
5,
10,
5,
9,
6,
9,
4,
7,
6,
7,
2,
4,
7,
4,
5,
5,
10,
3,
5,
2,
3,
7,
6,
7,
3,
2,
9,
3,
7,
5,
6,
4,
2,
4,
6,
3,
3,
1,
5,
4,
3,
5,
1,
2,
6,
3,
1,
3,
4,
2,
1,
1,
2,
3,
5,
2,
2,
4,
0,
2,
2,
0,
2,
4,
4,
0,
5,
1,
0,
1,
1,
0,
2,
0,
0,
2,
0,
0,
0,
0,
1,
0,
0,
0,
0,
0,
0,
0,
0,
0,
0,
0,
0,
0,
0,
0,
0,
0,
0,
0,
0,
0,
0,
0,
0,
0,
0,
0,
0,
0,
0,
0,
0,
0,
0,
0,
0,
0,
0,
0,
0,
0,
0,
0,
0,
0,
0,
0,
0,
0,
0,
0,
0,
0,
0,
0,
0,
0,
0,
0,
0,
0,
0,
0,
0,
0,
0,
0,
0,
0,
0,
0,
0,
0,
0,
0,
0,
0,
0,
0,
0,
0,
0,
0,
0,
0,
0,
0,
0,
0,
0,
0,
0,
0,
0,
0,
0,
0,
0,
0,
0,
0,
0,
0,
0,
0,
0,
0,
0,
0,
0,
0,
0,
0,
0,
0,
0,
0,
0,
0,
0,
0,
0,
0,
0,
0,
0,
0,
0,
0,
0,
0,
0,
0,
0,
0,
0,
0,
0,
0,
0,
0,
0,
0,
0,
0,
0,
0,
0,
0,
0,
0,
0,
0,
0,
0,
0,
0,
0,
0,
0,
0,
0,
0,
0,
0,
0,
0,
0,
0,
0,
0,
0,
0,
0,
0,
0,
0,
0,
0,
0,
0,
0,
0,
0,
0,
0,
0,
0,
0,
0,
0,
0,
0,
0,
0,
0,
0,
0,
0,
0,
0,
0,
0,
0,
0,
0,
0,
0,
0,
0,
0,
0,
0,
0,
0,
0,
0,
0,
0,
0,
0,
0,
0,
0,
0,
0,
0,
0,
0,
0,
0,
0,
0,
0,
0,
0,
0,
0,
0,
0,
0,
0,
0,
0,
0,
0,
0,
0,
0,
0,
0,
0,
0,
0,
0,
0,
0,
0,
0,
0,
0,
0,
0,
0,
0,
0,
0,
0,
0,
0,
0,
0,
0,
0,
0,
0,
0,
0,
0,
0,
0,
0,
0,
0,
0,
0,
0,
0,
0,
0,
0,
0,
0,
0,
0,
0,
0,
0,
0,
0,
0,
0,
0,
0,
0,
0,
0,
0,
0,
0,
0,
0,
0,
0,
0,
0,
0,
0,
0,
0,
0,
0,
0,
0,
#ENDOFDATA   :