File: NeXLSpectrum/Pyrite fragments/Pyrite_1_I2_15kV10nA130kHz_129kHz_100s.msa
#FORMAT      : EMSA/MAS Spectral Data File
#VERSION     : 1.0
#TITLE       : Bruker Nano spectrum Acquisition
#DATE        : 23-AUG-2019
#TIME        : 00:28
#OWNER       : Bruker Nano
#NPOINTS     : 4096
#NCOLUMNS    : 1
#XUNITS      : eV
#YUNITS      : counts
#DATATYPE    : Y
#XPERCHAN    : 5.00257
#OFFSET      : -482.8305
#BEAMKV      : 15
#SIGNALTYPE  : EDS
#ELEVANGLE   : 40
#AZIMANGLE   : 45
#LIVETIME    : 100
#REALTIME    : 131.551
#PROBECUR    : 10
#TAUWIND     : 0
#TDEADLYR    : 0
#TACTLYR     : 0.045
#TALWIND     : 0.004
#CHOFFSET    : 0.0
#XLABEL      : Energy (eV)
#YLABEL      : Counts
#EDSDET      : SDUTW
##DET_HASH   : c6370f9e-cc72-7559-f57e-203d75c8942b
##CALIB_HASH : fcf71094-1a10-2882-685e-00197fff5925
##SAMPLE     : <BulkSample id="1">\n<mOrientation id="2">\n<double>0.0</double>\n<double>0.0</double>\n<double>-1.0</double>\n</mOrientation>\n</BulkSample>
#SPECTRUM    :
0,
0,
0,
0,
0,
0,
0,
0,
0,
0,
0,
0,
0,
0,
0,
0,
1,
0,
3,
10,
42,
48,
62,
58,
49,
58,
62,
352,
4199,
31073,
126781,
281015,
338562,
224480,
81590,
16425,
2171,
343,
154,
122,
501,
3608,
4078,
3209,
2009,
1335,
1048,
1244,
1686,
2546,
3102,
2822,
2013,
1270,
978,
1022,
1151,
1366,
1369,
1532,
1554,
1642,
1933,
2390,
2890,
3437,
4083,
4005,
4088,
4623,
6638,
9554,
13381,
15552,
15535,
15763,
21796,
36645,
56083,
65285,
57600,
38335,
20625,
10218,
6236,
4946,
4594,
4436,
4160,
4113,
4046,
3927,
3895,
3931,
3955,
3940,
4086,
4154,
4186,
4112,
4317,
4414,
4413,
4569,
4606,
4661,
4650,
4754,
4724,
4888,
4879,
5045,
4947,
5027,
5034,
4992,
5156,
5186,
5151,
5110,
5258,
5187,
5157,
5130,
5268,
5284,
5206,
5250,
5267,
5321,
5423,
5369,
5362,
5319,
5250,
5148,
4930,
5006,
4898,
4914,
4865,
4808,
4933,
4945,
4899,
4923,
4896,
5068,
5087,
5020,
4971,
5007,
5215,
4994,
4864,
4836,
4889,
4782,
4672,
4835,
4806,
4782,
4945,
4905,
4929,
4980,
4947,
5075,
5043,
4932,
5001,
5002,
4882,
4763,
4845,
4774,
5074,
5781,
7358,
11626,
21736,
43614,
82524,
140859,
209597,
267915,
292403,
272663,
215948,
147731,
87540,
46849,
26428,
19136,
18977,
21256,
23200,
22939,
20284,
15812,
11374,
7819,
5301,
4067,
3341,
2997,
2723,
2737,
2774,
2776,
2616,
2640,
2624,
2814,
2680,
2639,
2610,
2705,
2680,
2612,
2643,
2621,
2644,
2573,
2627,
2645,
2675,
2608,
2585,
2639,
2534,
2564,
2470,
2486,
2486,
2469,
2455,
2425,
2411,
2449,
2381,
2473,
2396,
2352,
2354,
2350,
2335,
2398,
2367,
2263,
2310,
2286,
2339,
2239,
2266,
2240,
2263,
2237,
2210,
2238,
2205,
2240,
2246,
2161,
2184,
2147,
2121,
2165,
2100,
2104,
2077,
2153,
2103,
2111,
2157,
1991,
2112,
2196,
2072,
2016,
2022,
2003,
2085,
1957,
2002,
2033,
1991,
1922,
1929,
1951,
1897,
1906,
1908,
1880,
1978,
1935,
1909,
1877,
1828,
1836,
1820,
1852,
1694,
1864,
1787,
1765,
1761,
1759,
1773,
1722,
1765,
1735,
1709,
1726,
1663,
1664,
1739,
1705,
1700,
1730,
1712,
1681,
1714,
1590,
1663,
1610,
1567,
1669,
1618,
1578,
1626,
1598,
1590,
1513,
1509,
1524,
1498,
1497,
1449,
1400,
1384,
1364,
1332,
1324,
1380,
1391,
1381,
1395,
1419,
1386,
1405,
1408,
1402,
1395,
1394,
1418,
1384,
1366,
1404,
1395,
1373,
1369,
1422,
1381,
1390,
1428,
1340,
1392,
1387,
1311,
1333,
1336,
1283,
1379,
1290,
1330,
1364,
1313,
1284,
1289,
1311,
1338,
1278,
1249,
1210,
1294,
1316,
1165,
1273,
1222,
1304,
1209,
1265,
1270,
1241,
1251,
1192,
1215,
1134,
1174,
1206,
1172,
1185,
1227,
1219,
1181,
1213,
1118,
1189,
1149,
1128,
1143,
1158,
1142,
1205,
1135,
1090,
1071,
1060,
1087,
1142,
1073,
1098,
1098,
1094,
1077,
1104,
1073,
1130,
1056,
1058,
990,
1089,
1076,
1060,
1061,
1037,
1056,
1042,
1038,
1066,
1071,
1067,
1046,
1141,
1124,
1288,
1456,
1910,
2386,
3488,
5544,
8380,
12386,
17533,
23378,
28893,
33778,
36715,
36869,
34804,
30997,
25527,
19511,
14382,
9800,
6259,
3989,
2748,
1805,
1374,
1091,
997,
984,
938,
911,
861,
922,
842,
899,
875,
894,
902,
900,
899,
933,
900,
850,
923,
896,
936,
1041,
1093,
1160,
1361,
1672,
2154,
2665,
3278,
4012,
4561,
5167,
5190,
5297,
5023,
4414,
3749,
3078,
2445,
1921,
1488,
1194,
979,
869,
823,
703,
694,
682,
688,
712,
682,
702,
679,
744,
690,
654,
696,
723,
712,
760,
738,
730,
706,
699,
731,
701,
642,
652,
670,
616,
614,
646,
628,
601,
617,
581,
679,
681,
648,
578,
603,
654,
584,
610,
642,
596,
589,
626,
609,
633,
579,
575,
607,
597,
557,
564,
591,
561,
504,
564,
572,
565,
564,
570,
566,
562,
541,
548,
520,
551,
546,
568,
571,
549,
568,
551,
546,
554,
539,
523,
548,
547,
495,
539,
502,
485,
471,
500,
528,
515,
507,
479,
493,
477,
461,
470,
479,
494,
462,
469,
456,
459,
485,
476,
468,
460,
463,
478,
452,
434,
446,
461,
462,
444,
442,
471,
421,
441,
425,
447,
462,
442,
423,
453,
404,
405,
451,
410,
461,
449,
412,
437,
426,
412,
406,
401,
399,
407,
414,
420,
393,
390,
383,
395,
384,
390,
392,
412,
392,
401,
379,
393,
389,
378,
390,
413,
381,
363,
361,
362,
365,
358,
390,
365,
376,
362,
410,
350,
400,
383,
385,
384,
351,
351,
388,
336,
346,
367,
368,
333,
340,
327,
344,
317,
339,
341,
340,
343,
318,
341,
363,
312,
362,
306,
304,
319,
260,
273,
323,
333,
309,
324,
316,
317,
288,
300,
299,
295,
286,
310,
323,
316,
297,
302,
275,
280,
276,
268,
285,
304,
269,
304,
267,
290,
296,
291,
240,
274,
289,
261,
290,
285,
257,
214,
265,
282,
243,
263,
247,
241,
266,
263,
257,
238,
247,
240,
253,
256,
213,
236,
233,
235,
221,
235,
224,
211,
238,
228,
219,
233,
238,
209,
233,
214,
240,
213,
245,
212,
205,
197,
214,
210,
187,
207,
187,
217,
206,
222,
198,
239,
206,
181,
195,
192,
188,
192,
195,
183,
160,
190,
171,
181,
179,
180,
171,
162,
192,
184,
215,
198,
164,
188,
167,
162,
175,
154,
169,
165,
167,
161,
165,
187,
164,
164,
154,
175,
166,
151,
172,
141,
164,
159,
168,
158,
160,
160,
154,
130,
144,
127,
129,
133,
126,
137,
129,
137,
149,
153,
119,
158,
143,
126,
140,
138,
142,
115,
118,
122,
119,
141,
128,
131,
119,
104,
117,
115,
117,
119,
103,
122,
127,
99,
120,
107,
104,
105,
125,
109,
90,
87,
99,
94,
94,
99,
87,
93,
93,
90,
97,
92,
92,
91,
105,
98,
91,
90,
101,
77,
84,
85,
105,
86,
80,
106,
93,
84,
74,
83,
95,
59,
80,
87,
76,
81,
63,
59,
69,
71,
74,
82,
86,
68,
62,
54,
74,
62,
33,
61,
56,
72,
59,
49,
65,
59,
63,
56,
62,
50,
54,
64,
56,
63,
54,
44,
71,
59,
43,
41,
50,
47,
32,
47,
45,
38,
42,
62,
48,
42,
33,
44,
33,
43,
38,
30,
46,
32,
31,
41,
32,
32,
42,
34,
25,
42,
34,
32,
36,
33,
32,
32,
22,
24,
25,
34,
19,
35,
24,
25,
19,
19,
21,
24,
16,
17,
15,
30,
22,
16,
27,
27,
21,
16,
15,
18,
10,
19,
13,
18,
11,
22,
13,
18,
6,
6,
11,
6,
7,
14,
9,
11,
4,
9,
8,
5,
9,
11,
6,
7,
6,
7,
2,
6,
0,
5,
1,
0,
0,
0,
0,
0,
0,
0,
1,
0,
0,
0,
1,
0,
0,
0,
0,
0,
0,
0,
0,
0,
2,
3,
0,
1,
0,
2,
0,
0,
2,
0,
0,
1,
0,
0,
0,
1,
0,
0,
0,
0,
0,
3,
0,
0,
3,
1,
0,
0,
1,
1,
0,
2,
0,
0,
0,
1,
0,
2,
0,
2,
0,
0,
0,
0,
0,
0,
0,
0,
0,
0,
0,
0,
0,
0,
0,
0,
0,
0,
0,
0,
0,
0,
1,
0,
0,
0,
0,
1,
0,
0,
0,
3,
0,
2,
1,
0,
0,
0,
0,
0,
0,
2,
2,
0,
1,
0,
0,
0,
0,
0,
0,
0,
1,
0,
0,
0,
0,
0,
0,
1,
0,
0,
0,
0,
1,
0,
0,
0,
0,
0,
0,
0,
0,
0,
0,
0,
0,
0,
0,
0,
0,
0,
0,
1,
2,
0,
0,
0,
2,
0,
1,
0,
0,
0,
0,
1,
0,
0,
0,
0,
0,
0,
0,
0,
1,
0,
0,
0,
1,
0,
0,
2,
0,
0,
0,
0,
0,
0,
0,
0,
0,
0,
2,
0,
0,
0,
0,
0,
0,
0,
0,
0,
0,
0,
0,
0,
0,
0,
0,
0,
0,
0,
0,
0,
1,
1,
0,
0,
1,
0,
0,
0,
0,
0,
0,
0,
0,
0,
0,
1,
0,
0,
1,
0,
0,
0,
0,
0,
0,
1,
0,
0,
0,
0,
0,
0,
0,
0,
0,
0,
0,
0,
0,
0,
0,
0,
0,
0,
0,
0,
0,
0,
0,
0,
0,
0,
0,
0,
0,
0,
0,
0,
1,
0,
0,
0,
2,
0,
0,
0,
0,
0,
0,
0,
0,
0,
0,
0,
1,
0,
0,
0,
0,
0,
0,
0,
0,
0,
0,
0,
0,
0,
0,
0,
1,
0,
1,
0,
1,
1,
0,
0,
0,
0,
0,
0,
0,
2,
0,
1,
0,
0,
0,
0,
0,
1,
0,
0,
1,
0,
0,
2,
0,
0,
0,
0,
0,
1,
0,
0,
#ENDOFDATA   :