File: NeXLSpectrum/Pyrite fragments/Pyrite_1_E1_15kV10nA130kHz_95kHz_100s.msa
#FORMAT      : EMSA/MAS Spectral Data File
#VERSION     : 1.0
#TITLE       : Bruker Nano spectrum Acquisition
#DATE        : 23-AUG-2019
#TIME        : 11:05
#OWNER       : Bruker Nano
#NPOINTS     : 4096
#NCOLUMNS    : 1
#XUNITS      : eV
#YUNITS      : counts
#DATATYPE    : Y
#XPERCHAN    : 5.00257
#OFFSET      : -482.8305
#BEAMKV      : 15
#SIGNALTYPE  : EDS
#ELEVANGLE   : 40
#AZIMANGLE   : 45
#LIVETIME    : 100
#REALTIME    : 121.686
#PROBECUR    : 10
#TAUWIND     : 0
#TDEADLYR    : 0
#TACTLYR     : 0.045
#TALWIND     : 0.004
#CHOFFSET    : 0.0
#XLABEL      : Energy (eV)
#YLABEL      : Counts
#EDSDET      : SDUTW
##DET_HASH   : c6370f9e-cc72-7559-f57e-203d75c8942b
##CALIB_HASH : fcf71094-1a10-2882-685e-00197fff5925
##SAMPLE     : <BulkSample id="1">\n<mOrientation id="2">\n<double>0.0</double>\n<double>0.0</double>\n<double>-1.0</double>\n</mOrientation>\n</BulkSample>
#SPECTRUM    :
0,
0,
0,
0,
0,
0,
0,
0,
0,
0,
0,
0,
0,
0,
0,
0,
0,
0,
2,
3,
17,
29,
11,
24,
26,
19,
46,
198,
2531,
18440,
75475,
168833,
204028,
135316,
48959,
9895,
1228,
142,
41,
0,
113,
1216,
1374,
1196,
906,
681,
814,
1592,
3813,
7525,
10556,
10147,
6557,
2941,
1181,
803,
988,
1381,
1537,
1487,
1166,
1084,
1205,
1784,
3371,
5793,
8937,
9810,
8309,
5694,
4082,
4228,
5445,
5976,
6144,
6135,
8727,
15011,
22747,
26693,
23493,
15779,
8446,
4294,
2630,
2096,
1922,
1737,
1806,
1789,
1767,
1718,
1730,
1760,
1937,
1939,
1944,
1941,
1902,
1967,
2032,
2078,
2096,
2159,
2141,
2179,
2110,
2225,
2373,
2408,
2390,
2412,
2500,
2442,
2535,
2625,
2603,
2613,
2752,
2674,
2701,
2772,
2878,
2800,
2851,
2870,
2973,
2889,
2944,
3027,
3067,
3124,
3243,
3054,
3121,
2976,
2979,
2863,
2968,
2977,
2995,
3108,
3004,
3056,
3068,
3056,
3071,
3250,
3333,
3258,
3358,
3315,
3382,
3172,
3147,
3261,
3212,
3272,
3174,
3305,
3283,
3195,
3324,
3478,
3449,
3528,
3585,
3608,
3473,
3518,
3506,
3573,
3549,
3565,
3477,
3504,
3835,
4194,
5629,
8752,
16632,
33200,
63155,
108582,
161360,
206191,
225678,
210276,
166380,
113699,
67548,
36229,
20108,
14380,
14470,
16161,
17760,
17324,
14945,
11718,
8274,
5512,
3790,
2766,
2209,
2014,
1875,
1848,
1825,
1806,
1811,
1797,
1796,
1793,
1796,
1790,
1806,
1829,
1825,
1782,
1775,
1830,
1814,
1795,
1770,
1796,
1799,
1801,
1790,
1770,
1787,
1770,
1832,
1778,
1766,
1768,
1793,
1774,
1769,
1820,
1832,
1768,
1761,
1749,
1752,
1755,
1730,
1748,
1709,
1796,
1743,
1760,
1718,
1718,
1749,
1747,
1713,
1706,
1764,
1734,
1752,
1707,
1674,
1707,
1690,
1649,
1700,
1682,
1608,
1667,
1687,
1622,
1670,
1635,
1599,
1674,
1658,
1593,
1518,
1577,
1644,
1594,
1663,
1606,
1555,
1581,
1542,
1635,
1565,
1535,
1605,
1564,
1531,
1539,
1516,
1537,
1536,
1479,
1534,
1516,
1487,
1517,
1538,
1504,
1508,
1478,
1473,
1433,
1493,
1496,
1432,
1516,
1408,
1474,
1468,
1436,
1425,
1408,
1440,
1431,
1376,
1443,
1389,
1377,
1379,
1390,
1401,
1319,
1406,
1341,
1392,
1399,
1358,
1312,
1289,
1309,
1291,
1244,
1202,
1240,
1175,
1222,
1144,
1167,
1180,
1198,
1202,
1207,
1229,
1202,
1276,
1216,
1214,
1208,
1233,
1256,
1260,
1200,
1235,
1235,
1236,
1269,
1215,
1192,
1174,
1183,
1250,
1231,
1208,
1197,
1184,
1159,
1200,
1167,
1133,
1161,
1157,
1160,
1106,
1137,
1116,
1120,
1185,
1117,
1117,
1107,
1142,
1104,
1174,
1121,
1094,
1114,
1130,
1092,
1075,
1101,
1086,
1103,
1003,
1147,
1105,
1091,
1035,
1047,
1085,
1032,
1062,
976,
1057,
1062,
1002,
1044,
1054,
1028,
974,
1000,
1020,
1042,
1023,
954,
1023,
982,
997,
942,
976,
973,
1002,
965,
1000,
976,
965,
930,
921,
976,
926,
964,
956,
977,
959,
881,
958,
973,
938,
947,
982,
1042,
1083,
1313,
1602,
2183,
3278,
5060,
7602,
11347,
15923,
21232,
26561,
30986,
33534,
34084,
32180,
28677,
23561,
18194,
12987,
8867,
5786,
3785,
2408,
1626,
1225,
1034,
923,
869,
840,
879,
852,
827,
832,
833,
821,
871,
800,
796,
797,
811,
806,
805,
815,
826,
882,
941,
962,
1150,
1314,
1635,
1948,
2501,
3149,
3689,
4341,
4699,
4904,
4833,
4557,
4075,
3453,
2787,
2222,
1701,
1351,
1064,
800,
740,
674,
674,
609,
632,
625,
631,
616,
615,
585,
615,
619,
612,
606,
601,
598,
614,
630,
579,
602,
591,
597,
590,
627,
596,
582,
567,
586,
605,
558,
520,
561,
536,
539,
568,
596,
567,
567,
547,
538,
541,
521,
551,
514,
518,
574,
500,
521,
543,
533,
513,
564,
541,
516,
524,
592,
540,
506,
542,
495,
522,
507,
521,
522,
505,
557,
502,
499,
502,
491,
482,
482,
501,
479,
477,
463,
466,
461,
503,
467,
472,
448,
491,
461,
485,
441,
452,
455,
464,
453,
443,
463,
451,
437,
449,
445,
443,
453,
439,
427,
435,
411,
429,
416,
427,
419,
428,
402,
415,
419,
409,
395,
427,
392,
398,
396,
442,
392,
395,
417,
385,
391,
395,
414,
412,
406,
387,
415,
421,
389,
380,
420,
378,
375,
357,
380,
381,
375,
362,
375,
354,
356,
375,
368,
358,
344,
354,
357,
352,
353,
339,
335,
354,
348,
365,
355,
319,
341,
343,
314,
348,
345,
349,
351,
320,
310,
344,
331,
356,
336,
331,
296,
328,
316,
350,
270,
310,
309,
351,
317,
313,
336,
344,
299,
289,
305,
318,
277,
311,
312,
283,
308,
289,
292,
290,
283,
264,
286,
275,
304,
281,
280,
251,
294,
282,
297,
270,
259,
276,
274,
278,
235,
245,
254,
286,
274,
233,
250,
232,
241,
269,
242,
241,
264,
222,
238,
271,
296,
245,
239,
273,
259,
229,
254,
227,
221,
258,
255,
210,
256,
214,
233,
230,
261,
237,
217,
228,
207,
227,
191,
215,
254,
214,
206,
215,
226,
235,
223,
214,
225,
225,
224,
204,
208,
184,
232,
217,
181,
178,
195,
197,
222,
181,
214,
172,
184,
197,
179,
167,
182,
177,
202,
173,
207,
182,
183,
170,
173,
168,
165,
168,
175,
175,
164,
159,
167,
170,
153,
164,
163,
164,
176,
155,
150,
162,
165,
164,
153,
160,
160,
142,
180,
145,
142,
142,
128,
165,
132,
173,
148,
132,
149,
136,
123,
142,
127,
128,
139,
119,
123,
125,
119,
130,
142,
125,
137,
113,
123,
114,
103,
148,
127,
112,
112,
116,
102,
125,
123,
100,
113,
119,
118,
116,
111,
107,
108,
97,
80,
115,
94,
118,
90,
95,
91,
117,
87,
87,
99,
83,
89,
76,
100,
93,
96,
91,
80,
93,
83,
93,
89,
83,
87,
96,
83,
81,
86,
89,
82,
80,
75,
76,
82,
74,
74,
79,
83,
72,
74,
67,
71,
65,
69,
68,
81,
71,
65,
66,
64,
59,
56,
52,
71,
60,
64,
54,
73,
56,
74,
68,
59,
45,
47,
54,
47,
46,
52,
53,
68,
50,
37,
52,
68,
53,
47,
54,
56,
44,
58,
39,
39,
33,
41,
36,
42,
48,
45,
37,
49,
43,
19,
50,
28,
28,
20,
29,
39,
15,
44,
28,
47,
39,
41,
24,
35,
34,
22,
17,
28,
40,
27,
29,
25,
21,
30,
22,
15,
15,
24,
19,
16,
19,
23,
17,
29,
15,
17,
13,
15,
16,
8,
8,
15,
15,
19,
13,
16,
5,
10,
15,
16,
11,
10,
12,
8,
10,
3,
4,
3,
6,
3,
9,
4,
12,
3,
5,
2,
4,
0,
3,
0,
0,
0,
1,
0,
0,
1,
3,
2,
1,
2,
0,
0,
0,
0,
0,
0,
0,
0,
0,
1,
0,
0,
1,
0,
0,
0,
0,
0,
0,
2,
0,
0,
0,
0,
0,
0,
0,
0,
1,
0,
0,
0,
1,
0,
0,
3,
0,
3,
0,
0,
0,
0,
1,
0,
1,
0,
1,
0,
1,
0,
0,
4,
1,
0,
0,
0,
0,
0,
0,
0,
0,
0,
0,
0,
0,
0,
0,
0,
0,
0,
0,
0,
0,
0,
0,
0,
0,
0,
0,
0,
0,
0,
1,
0,
0,
0,
0,
0,
0,
0,
0,
0,
0,
0,
0,
0,
0,
0,
0,
2,
1,
0,
0,
1,
0,
0,
1,
0,
0,
0,
0,
0,
0,
0,
0,
0,
0,
0,
0,
0,
0,
1,
1,
0,
0,
0,
1,
0,
1,
0,
0,
1,
0,
0,
0,
0,
0,
0,
0,
0,
0,
0,
0,
0,
0,
2,
0,
0,
0,
0,
0,
0,
0,
0,
0,
1,
0,
0,
0,
0,
0,
0,
0,
0,
0,
0,
0,
0,
0,
0,
0,
0,
1,
0,
0,
0,
0,
0,
0,
0,
0,
0,
0,
0,
1,
0,
0,
0,
0,
0,
0,
0,
0,
0,
0,
0,
0,
0,
0,
0,
0,
0,
0,
0,
0,
1,
1,
1,
0,
0,
0,
0,
0,
0,
0,
0,
0,
0,
0,
0,
0,
0,
0,
1,
0,
0,
0,
0,
0,
0,
0,
0,
0,
0,
0,
0,
0,
0,
0,
0,
0,
0,
0,
0,
0,
0,
0,
0,
0,
0,
0,
0,
0,
0,
0,
0,
0,
0,
0,
0,
1,
0,
0,
0,
1,
0,
1,
1,
0,
0,
0,
1,
0,
0,
0,
1,
0,
0,
0,
0,
0,
1,
0,
0,
1,
0,
0,
0,
0,
1,
1,
1,
0,
0,
2,
0,
0,
0,
0,
0,
0,
0,
0,
0,
0,
0,
0,
0,
1,
0,
1,
0,
1,
0,
1,
0,
0,
0,
0,
0,
0,
0,
0,
#ENDOFDATA   :