File: NeXLSpectrum/Pyrite fragments/Pyrite_1_M2_15kV10nA130kHz_129kHz_100s.msa
#FORMAT      : EMSA/MAS Spectral Data File
#VERSION     : 1.0
#TITLE       : Bruker Nano spectrum
#DATE        : 23-AUG-2019
#TIME        : 01:15
#OWNER       : Bruker Nano
#NPOINTS     : 4096
#NCOLUMNS    : 1
#XUNITS      : eV
#YUNITS      : counts
#DATATYPE    : Y
#XPERCHAN    : 5.00257
#OFFSET      : -482.8305
#BEAMKV      : 15
#SIGNALTYPE  : EDS
#ELEVANGLE   : 40
#AZIMANGLE   : 45
#LIVETIME    : 100
#REALTIME    : 131.808
#PROBECUR    : 10
#TAUWIND     : 0
#TDEADLYR    : 0
#TACTLYR     : 0.045
#TALWIND     : 0.004
#CHOFFSET    : 0.0
#XLABEL      : Energy (eV)
#YLABEL      : Counts
#EDSDET      : SDUTW
##DET_HASH   : c6370f9e-cc72-7559-f57e-203d75c8942b
##CALIB_HASH : fcf71094-1a10-2882-685e-00197fff5925
##SAMPLE     : <BulkSample id="1">\n<mOrientation id="2">\n<double>0.0</double>\n<double>0.0</double>\n<double>-1.0</double>\n</mOrientation>\n</BulkSample>
#SPECTRUM    :
0,
0,
0,
0,
0,
0,
0,
0,
0,
0,
0,
0,
0,
0,
0,
0,
0,
2,
7,
14,
28,
50,
44,
48,
46,
47,
62,
401,
4330,
30991,
126618,
281240,
339490,
224124,
81289,
16604,
2231,
348,
178,
123,
486,
3721,
4103,
3333,
2071,
1255,
1014,
1216,
1639,
2502,
2925,
2842,
1953,
1239,
974,
1071,
1198,
1337,
1444,
1453,
1563,
1662,
1947,
2485,
2934,
3447,
4113,
4111,
4184,
4757,
6656,
9890,
13649,
15640,
15583,
15783,
21563,
37141,
56114,
66072,
57723,
38529,
20955,
10363,
6302,
5199,
4581,
4393,
4213,
4229,
3969,
3967,
3886,
3848,
3857,
3986,
4085,
4142,
4246,
4204,
4277,
4435,
4410,
4655,
4652,
4774,
4573,
4835,
4922,
4796,
4923,
4940,
4918,
5029,
4996,
4966,
5111,
5083,
5181,
5294,
5159,
5171,
5226,
5202,
5303,
5247,
5291,
5269,
5351,
5307,
5428,
5412,
5228,
5316,
5194,
5109,
5106,
5024,
4983,
5006,
5010,
4932,
4875,
4962,
4835,
4952,
4948,
5153,
5140,
5059,
5194,
5086,
5083,
5223,
4965,
4812,
4825,
4777,
4726,
4798,
4756,
4829,
4877,
4818,
5008,
4911,
5079,
5053,
5068,
4958,
5001,
4893,
5015,
4816,
4905,
5010,
5098,
5839,
7355,
11681,
21973,
43369,
83127,
141835,
210459,
268644,
293635,
273388,
217753,
147690,
87643,
46949,
26554,
19149,
19001,
21385,
23354,
22960,
20329,
15820,
11413,
7824,
5456,
3974,
3292,
2938,
2828,
2733,
2728,
2692,
2761,
2692,
2731,
2728,
2622,
2677,
2675,
2701,
2690,
2706,
2720,
2610,
2623,
2670,
2720,
2602,
2583,
2651,
2618,
2616,
2590,
2602,
2500,
2533,
2493,
2511,
2469,
2443,
2428,
2441,
2433,
2394,
2405,
2374,
2340,
2338,
2356,
2311,
2301,
2294,
2327,
2279,
2226,
2273,
2269,
2290,
2271,
2235,
2161,
2191,
2215,
2241,
2221,
2154,
2205,
2174,
2109,
2156,
2123,
2193,
2167,
2051,
2074,
2081,
2066,
2134,
2023,
2034,
2071,
1990,
2061,
2048,
1967,
1977,
1946,
1977,
1984,
1902,
1973,
1908,
1898,
1884,
1898,
1927,
1884,
1862,
1938,
1871,
1860,
1801,
1912,
1800,
1838,
1827,
1792,
1804,
1779,
1779,
1750,
1801,
1826,
1721,
1716,
1736,
1781,
1709,
1726,
1725,
1696,
1672,
1670,
1684,
1683,
1646,
1661,
1744,
1644,
1597,
1636,
1610,
1611,
1567,
1573,
1564,
1554,
1528,
1513,
1506,
1455,
1414,
1394,
1380,
1351,
1347,
1357,
1364,
1386,
1383,
1423,
1410,
1421,
1412,
1409,
1399,
1407,
1380,
1387,
1421,
1404,
1427,
1353,
1355,
1464,
1445,
1382,
1381,
1348,
1413,
1382,
1330,
1358,
1338,
1313,
1383,
1265,
1336,
1366,
1329,
1259,
1283,
1348,
1321,
1280,
1260,
1229,
1204,
1240,
1285,
1256,
1263,
1216,
1310,
1284,
1233,
1177,
1223,
1228,
1189,
1209,
1241,
1214,
1222,
1132,
1186,
1226,
1178,
1182,
1175,
1111,
1176,
1160,
1150,
1087,
1085,
1168,
1125,
1146,
1145,
1044,
1117,
1138,
1125,
1090,
1122,
1111,
1028,
1054,
1055,
1088,
1106,
1015,
1037,
1107,
1062,
1085,
1059,
1075,
1080,
1029,
1041,
1068,
1082,
1047,
1075,
1166,
1175,
1227,
1384,
1698,
2379,
3557,
5554,
8369,
12575,
17422,
23320,
29314,
33839,
36997,
37287,
34984,
31047,
25433,
19690,
14327,
9747,
6456,
4155,
2747,
1829,
1411,
1129,
1048,
998,
926,
920,
910,
922,
934,
873,
905,
875,
855,
916,
881,
895,
863,
936,
943,
916,
978,
975,
1116,
1195,
1429,
1683,
2179,
2784,
3314,
3986,
4644,
5025,
5223,
5250,
4921,
4424,
3664,
3090,
2402,
1909,
1505,
1193,
997,
852,
748,
772,
723,
671,
669,
631,
653,
679,
659,
657,
732,
681,
776,
751,
745,
689,
779,
721,
699,
741,
700,
675,
679,
649,
625,
594,
648,
636,
594,
653,
615,
616,
563,
613,
625,
609,
600,
582,
603,
563,
617,
627,
580,
586,
623,
629,
588,
611,
592,
561,
655,
592,
579,
600,
576,
593,
584,
549,
526,
597,
571,
543,
590,
555,
588,
575,
590,
518,
512,
580,
571,
549,
526,
513,
561,
510,
473,
551,
561,
523,
504,
530,
499,
519,
470,
478,
513,
495,
478,
458,
488,
469,
466,
439,
465,
425,
469,
464,
448,
455,
472,
439,
451,
420,
458,
454,
416,
441,
463,
430,
419,
448,
437,
460,
419,
474,
476,
418,
445,
435,
432,
433,
417,
446,
451,
416,
450,
412,
421,
395,
445,
423,
395,
387,
394,
411,
396,
380,
406,
400,
376,
380,
371,
376,
398,
414,
361,
366,
378,
387,
405,
386,
380,
384,
371,
397,
387,
394,
383,
374,
352,
359,
361,
356,
356,
364,
376,
349,
372,
368,
359,
363,
387,
339,
350,
340,
317,
359,
346,
314,
346,
351,
317,
300,
316,
343,
331,
321,
337,
319,
327,
330,
300,
338,
326,
335,
312,
313,
294,
322,
306,
300,
310,
323,
325,
280,
309,
298,
277,
309,
288,
303,
272,
242,
287,
272,
254,
261,
278,
279,
280,
273,
234,
257,
260,
271,
263,
283,
261,
263,
256,
281,
265,
262,
274,
241,
248,
242,
230,
271,
292,
235,
222,
239,
222,
233,
221,
265,
249,
227,
232,
237,
223,
229,
239,
214,
219,
208,
211,
231,
223,
233,
237,
193,
190,
195,
227,
197,
223,
212,
210,
190,
210,
184,
204,
188,
208,
202,
196,
186,
202,
211,
190,
191,
199,
212,
180,
169,
182,
182,
181,
180,
186,
197,
198,
173,
172,
193,
164,
162,
164,
177,
160,
142,
171,
175,
150,
176,
182,
157,
156,
156,
155,
156,
156,
144,
136,
143,
152,
164,
166,
145,
165,
143,
134,
146,
171,
153,
162,
128,
141,
158,
139,
149,
132,
127,
136,
145,
112,
144,
143,
132,
120,
118,
114,
138,
103,
117,
131,
109,
102,
122,
142,
114,
119,
106,
110,
107,
116,
115,
134,
119,
102,
120,
117,
105,
93,
110,
103,
90,
96,
104,
106,
96,
95,
80,
97,
91,
91,
84,
89,
84,
84,
93,
82,
105,
93,
76,
86,
89,
70,
79,
76,
88,
69,
72,
80,
75,
73,
74,
71,
75,
68,
72,
71,
66,
73,
73,
64,
67,
68,
58,
58,
55,
76,
56,
57,
56,
54,
62,
59,
50,
62,
63,
49,
56,
58,
61,
49,
43,
53,
61,
48,
53,
37,
58,
55,
42,
43,
41,
62,
41,
49,
56,
33,
49,
43,
40,
56,
26,
29,
36,
45,
39,
30,
31,
35,
30,
40,
23,
40,
32,
27,
27,
21,
33,
48,
24,
28,
29,
24,
18,
18,
28,
27,
17,
36,
18,
25,
29,
17,
22,
19,
21,
20,
19,
21,
20,
18,
5,
11,
23,
18,
10,
15,
10,
19,
10,
12,
16,
10,
11,
5,
16,
11,
9,
9,
3,
7,
6,
5,
6,
3,
10,
4,
6,
4,
4,
10,
3,
3,
0,
4,
1,
0,
1,
1,
1,
0,
0,
0,
0,
0,
1,
0,
0,
0,
2,
0,
0,
0,
0,
0,
0,
0,
0,
0,
0,
0,
0,
0,
0,
0,
0,
0,
0,
0,
3,
0,
1,
2,
0,
1,
1,
0,
0,
0,
1,
0,
2,
0,
0,
1,
0,
0,
0,
0,
0,
0,
0,
0,
0,
0,
0,
0,
0,
0,
0,
0,
0,
0,
1,
0,
0,
0,
0,
0,
0,
0,
0,
0,
0,
0,
0,
1,
0,
3,
0,
0,
0,
0,
0,
0,
0,
3,
0,
1,
0,
0,
0,
0,
0,
0,
0,
0,
0,
0,
0,
0,
0,
0,
0,
1,
0,
0,
0,
0,
0,
0,
0,
0,
0,
0,
0,
2,
3,
1,
1,
0,
0,
0,
1,
0,
0,
0,
0,
2,
0,
0,
0,
0,
1,
0,
0,
0,
0,
0,
0,
1,
0,
0,
1,
0,
1,
0,
0,
0,
0,
0,
0,
1,
0,
1,
0,
0,
0,
0,
1,
0,
0,
0,
0,
0,
0,
2,
0,
0,
0,
0,
0,
1,
0,
0,
0,
0,
0,
0,
0,
0,
0,
0,
0,
2,
1,
0,
0,
0,
3,
0,
0,
0,
2,
0,
0,
0,
0,
0,
2,
0,
1,
0,
0,
0,
0,
0,
0,
1,
0,
4,
0,
0,
0,
0,
0,
0,
0,
0,
0,
0,
0,
0,
0,
0,
0,
0,
0,
0,
0,
0,
0,
0,
0,
1,
0,
0,
0,
0,
0,
0,
0,
1,
0,
0,
0,
0,
0,
0,
0,
1,
0,
0,
0,
0,
1,
0,
0,
0,
0,
0,
0,
0,
0,
0,
0,
0,
0,
0,
0,
0,
0,
0,
0,
0,
0,
0,
0,
0,
0,
0,
0,
0,
0,
0,
2,
0,
0,
1,
0,
1,
1,
0,
0,
0,
0,
0,
0,
0,
0,
0,
0,
0,
0,
0,
0,
0,
0,
0,
0,
0,
0,
0,
0,
0,
0,
1,
0,
1,
0,
0,
0,
0,
0,
#ENDOFDATA   :