File: NeXLSpectrum/Pyrite fragments/Pyrite_1_A3_15kV10nA130kHz_8kHz_100s.msa
#FORMAT      : EMSA/MAS Spectral Data File
#VERSION     : 1.0
#TITLE       : Bruker Nano spectrum Acquisition
#DATE        : 23-AUG-2019
#TIME        : 10:35
#OWNER       : Bruker Nano
#NPOINTS     : 4096
#NCOLUMNS    : 1
#XUNITS      : eV
#YUNITS      : counts
#DATATYPE    : Y
#XPERCHAN    : 5.00257
#OFFSET      : -482.8305
#BEAMKV      : 15
#SIGNALTYPE  : EDS
#ELEVANGLE   : 40
#AZIMANGLE   : 45
#LIVETIME    : 99.999
#REALTIME    : 101.247
#PROBECUR    : 10
#TAUWIND     : 0
#TDEADLYR    : 0
#TACTLYR     : 0.045
#TALWIND     : 0.004
#CHOFFSET    : 0.0
#XLABEL      : Energy (eV)
#YLABEL      : Counts
#EDSDET      : SDUTW
##DET_HASH   : c6370f9e-cc72-7559-f57e-203d75c8942b
##CALIB_HASH : fcf71094-1a10-2882-685e-00197fff5925
##SAMPLE     : <BulkSample id="1">\n<mOrientation id="2">\n<double>0.0</double>\n<double>0.0</double>\n<double>-1.0</double>\n</mOrientation>\n</BulkSample>
#SPECTRUM    :
0,
0,
0,
0,
0,
0,
0,
0,
0,
0,
0,
0,
0,
0,
0,
0,
0,
0,
0,
0,
0,
0,
1,
0,
0,
0,
0,
15,
164,
1375,
5827,
13571,
16757,
11038,
3933,
773,
82,
7,
0,
0,
0,
117,
157,
147,
156,
362,
1283,
4320,
12908,
28697,
42189,
41100,
25827,
10355,
2792,
533,
161,
131,
146,
151,
125,
106,
139,
225,
395,
795,
1217,
1364,
1104,
681,
370,
264,
272,
317,
334,
379,
435,
678,
893,
1158,
957,
730,
513,
299,
274,
258,
276,
293,
322,
373,
330,
280,
273,
264,
261,
234,
265,
281,
271,
244,
257,
244,
267,
234,
238,
248,
290,
276,
258,
290,
270,
263,
257,
250,
242,
281,
300,
249,
244,
250,
270,
263,
273,
271,
248,
283,
264,
290,
288,
254,
283,
279,
257,
241,
265,
252,
235,
242,
241,
243,
220,
226,
273,
232,
246,
246,
233,
245,
249,
255,
244,
210,
247,
237,
206,
204,
227,
211,
206,
200,
211,
196,
188,
186,
201,
202,
180,
218,
196,
217,
219,
190,
187,
171,
171,
179,
195,
199,
217,
264,
404,
675,
1246,
1972,
2817,
3661,
3915,
3685,
2926,
2057,
1246,
721,
426,
357,
344,
381,
430,
395,
350,
303,
266,
224,
168,
155,
154,
147,
145,
142,
139,
132,
134,
147,
137,
139,
126,
124,
135,
129,
125,
123,
118,
118,
126,
127,
123,
110,
120,
115,
126,
126,
114,
130,
111,
107,
103,
107,
103,
123,
115,
92,
116,
98,
86,
109,
102,
99,
108,
87,
102,
97,
110,
106,
107,
101,
93,
96,
103,
91,
95,
95,
114,
98,
87,
104,
87,
96,
98,
74,
97,
79,
72,
93,
102,
97,
98,
102,
114,
123,
112,
124,
108,
104,
97,
91,
100,
84,
73,
90,
67,
72,
61,
92,
78,
83,
87,
76,
90,
84,
84,
75,
71,
69,
89,
65,
65,
69,
68,
83,
75,
65,
59,
63,
73,
59,
75,
78,
59,
82,
81,
67,
65,
79,
61,
56,
79,
61,
77,
70,
67,
60,
67,
66,
65,
63,
63,
62,
66,
62,
59,
59,
66,
58,
50,
58,
56,
61,
53,
57,
62,
54,
74,
54,
50,
52,
64,
46,
53,
50,
53,
61,
49,
48,
49,
56,
58,
49,
54,
51,
52,
54,
59,
58,
60,
59,
44,
58,
50,
52,
37,
42,
52,
50,
56,
49,
47,
46,
42,
54,
49,
45,
43,
49,
48,
47,
38,
45,
54,
41,
56,
36,
51,
32,
30,
45,
38,
24,
49,
31,
30,
37,
32,
37,
49,
39,
48,
29,
38,
41,
42,
43,
37,
43,
38,
36,
44,
48,
35,
53,
36,
37,
26,
33,
35,
42,
53,
47,
45,
56,
28,
39,
37,
39,
47,
41,
52,
46,
61,
33,
76,
56,
84,
93,
174,
198,
263,
394,
471,
506,
582,
591,
576,
436,
396,
332,
208,
162,
108,
77,
56,
55,
40,
39,
28,
38,
37,
31,
30,
31,
28,
32,
38,
18,
26,
28,
34,
34,
41,
32,
33,
35,
42,
33,
26,
44,
30,
57,
60,
51,
72,
90,
88,
93,
94,
113,
103,
86,
81,
73,
50,
45,
42,
41,
31,
26,
28,
29,
22,
18,
22,
29,
30,
25,
26,
24,
26,
27,
22,
33,
27,
25,
39,
30,
36,
46,
34,
29,
22,
22,
22,
25,
20,
19,
20,
25,
18,
25,
15,
14,
15,
21,
16,
27,
23,
22,
25,
18,
23,
20,
27,
16,
15,
23,
26,
19,
28,
25,
28,
22,
13,
17,
24,
19,
26,
14,
27,
20,
18,
22,
20,
12,
14,
20,
25,
18,
22,
19,
19,
17,
20,
16,
13,
23,
14,
18,
18,
21,
16,
15,
16,
21,
13,
17,
12,
16,
24,
20,
22,
27,
18,
21,
11,
20,
20,
16,
11,
15,
16,
19,
15,
13,
23,
15,
21,
17,
14,
11,
17,
12,
8,
16,
12,
16,
11,
17,
14,
12,
13,
16,
15,
12,
19,
17,
12,
12,
7,
14,
16,
14,
11,
16,
12,
11,
15,
16,
9,
12,
13,
10,
12,
14,
15,
10,
12,
12,
13,
14,
8,
15,
12,
12,
15,
11,
8,
11,
13,
7,
18,
11,
12,
14,
11,
12,
12,
15,
11,
4,
14,
7,
6,
9,
10,
12,
10,
14,
9,
9,
11,
14,
10,
7,
13,
7,
9,
16,
11,
10,
12,
12,
8,
9,
6,
6,
6,
10,
5,
3,
10,
13,
12,
7,
13,
10,
6,
5,
9,
12,
20,
8,
10,
15,
6,
10,
7,
7,
9,
8,
7,
3,
11,
9,
9,
12,
6,
9,
14,
8,
7,
16,
13,
4,
6,
7,
15,
4,
11,
10,
8,
13,
8,
7,
7,
8,
7,
4,
8,
10,
10,
7,
7,
7,
5,
7,
10,
3,
8,
11,
12,
5,
8,
5,
4,
4,
8,
5,
5,
2,
2,
8,
8,
9,
11,
6,
11,
6,
6,
10,
11,
7,
7,
8,
5,
5,
3,
6,
6,
2,
8,
4,
4,
7,
4,
2,
3,
6,
4,
8,
5,
3,
6,
6,
3,
6,
9,
2,
2,
3,
8,
4,
8,
6,
3,
10,
4,
6,
6,
5,
9,
5,
3,
2,
6,
6,
7,
4,
9,
4,
0,
5,
2,
1,
3,
5,
3,
9,
9,
6,
6,
4,
6,
4,
5,
7,
4,
5,
3,
6,
4,
1,
4,
4,
0,
5,
3,
4,
1,
1,
9,
4,
2,
2,
3,
1,
4,
2,
3,
5,
3,
4,
3,
3,
4,
2,
5,
2,
5,
3,
5,
5,
4,
6,
4,
5,
2,
10,
2,
4,
4,
3,
3,
5,
0,
4,
3,
5,
3,
2,
5,
2,
1,
2,
0,
1,
1,
4,
2,
5,
2,
5,
0,
2,
3,
1,
3,
4,
4,
7,
3,
2,
0,
1,
4,
6,
2,
3,
4,
2,
3,
3,
3,
3,
5,
4,
2,
2,
6,
3,
3,
0,
0,
1,
4,
1,
3,
1,
3,
2,
1,
1,
2,
2,
2,
1,
0,
1,
0,
3,
1,
5,
0,
5,
1,
2,
5,
1,
3,
2,
3,
0,
1,
0,
2,
1,
1,
0,
3,
1,
2,
2,
1,
0,
0,
1,
1,
1,
1,
0,
1,
1,
1,
0,
1,
1,
0,
1,
0,
1,
3,
0,
2,
0,
2,
0,
0,
0,
0,
0,
0,
0,
1,
0,
0,
0,
0,
0,
0,
0,
0,
1,
0,
0,
0,
0,
0,
0,
0,
0,
0,
0,
0,
0,
0,
0,
0,
0,
0,
0,
0,
0,
0,
0,
0,
0,
0,
0,
0,
0,
0,
0,
0,
0,
0,
0,
0,
0,
0,
0,
0,
0,
0,
0,
0,
0,
0,
0,
0,
0,
0,
0,
0,
0,
0,
0,
0,
0,
0,
0,
0,
0,
0,
0,
0,
0,
0,
0,
0,
0,
0,
0,
0,
0,
0,
0,
0,
0,
0,
0,
0,
0,
0,
0,
0,
0,
0,
0,
0,
0,
0,
0,
0,
0,
0,
0,
0,
0,
0,
0,
0,
0,
0,
0,
0,
0,
0,
0,
0,
0,
0,
0,
0,
0,
0,
0,
0,
0,
0,
0,
0,
0,
0,
0,
0,
0,
0,
0,
0,
0,
0,
0,
0,
0,
0,
0,
0,
0,
0,
0,
0,
0,
0,
0,
0,
0,
0,
0,
0,
0,
0,
0,
0,
0,
0,
0,
0,
0,
0,
0,
0,
0,
0,
0,
0,
0,
0,
0,
0,
0,
0,
0,
0,
0,
0,
0,
0,
0,
0,
0,
0,
0,
0,
0,
0,
0,
0,
0,
0,
0,
0,
0,
0,
0,
0,
0,
0,
0,
0,
0,
0,
0,
0,
0,
0,
0,
0,
0,
0,
0,
0,
0,
0,
0,
0,
0,
0,
0,
0,
0,
0,
0,
0,
0,
0,
0,
0,
0,
0,
0,
0,
0,
0,
0,
0,
0,
0,
0,
0,
0,
0,
0,
0,
0,
0,
0,
0,
0,
0,
0,
0,
0,
0,
0,
0,
0,
0,
0,
0,
0,
0,
0,
0,
0,
0,
0,
0,
0,
0,
0,
0,
0,
0,
0,
0,
0,
0,
0,
0,
0,
0,
0,
0,
0,
0,
0,
0,
0,
0,
0,
0,
0,
0,
0,
0,
0,
0,
0,
0,
0,
0,
0,
0,
0,
0,
0,
0,
0,
0,
0,
0,
0,
0,
0,
0,
0,
0,
0,
0,
0,
0,
0,
0,
0,
0,
0,
0,
0,
0,
0,
#ENDOFDATA   :