File: NeXLSpectrum/Pyrite fragments/Pyrite_1_J1_15kV10nA130kHz_28kHz_100s.msa
#FORMAT      : EMSA/MAS Spectral Data File
#VERSION     : 1.0
#TITLE       : Bruker Nano spectrum Acquisition
#DATE        : 23-AUG-2019
#TIME        : 00:34
#OWNER       : Bruker Nano
#NPOINTS     : 4096
#NCOLUMNS    : 1
#XUNITS      : eV
#YUNITS      : counts
#DATATYPE    : Y
#XPERCHAN    : 5.00257
#OFFSET      : -482.8305
#BEAMKV      : 15
#SIGNALTYPE  : EDS
#ELEVANGLE   : 40
#AZIMANGLE   : 45
#LIVETIME    : 100
#REALTIME    : 105.389
#PROBECUR    : 10
#TAUWIND     : 0
#TDEADLYR    : 0
#TACTLYR     : 0.045
#TALWIND     : 0.004
#CHOFFSET    : 0.0
#XLABEL      : Energy (eV)
#YLABEL      : Counts
#EDSDET      : SDUTW
##DET_HASH   : c6370f9e-cc72-7559-f57e-203d75c8942b
##CALIB_HASH : fcf71094-1a10-2882-685e-00197fff5925
##SAMPLE     : <BulkSample id="1">\n<mOrientation id="2">\n<double>0.0</double>\n<double>0.0</double>\n<double>-1.0</double>\n</mOrientation>\n</BulkSample>
#SPECTRUM    :
0,
0,
0,
0,
0,
0,
0,
0,
0,
0,
0,
0,
0,
0,
0,
0,
0,
0,
1,
0,
1,
2,
2,
5,
3,
6,
4,
63,
745,
5261,
21654,
49352,
60099,
40232,
14435,
2835,
343,
30,
0,
0,
10,
149,
141,
137,
117,
87,
154,
278,
696,
1414,
1962,
1933,
1251,
515,
232,
159,
171,
201,
280,
242,
196,
188,
257,
435,
960,
1931,
2869,
3368,
2776,
1752,
859,
547,
704,
741,
786,
709,
1045,
1833,
2750,
3316,
3049,
2132,
1115,
585,
342,
284,
308,
283,
302,
327,
321,
292,
271,
313,
319,
324,
311,
290,
271,
262,
336,
334,
342,
319,
308,
327,
349,
301,
345,
337,
349,
332,
382,
348,
383,
381,
407,
408,
405,
424,
374,
429,
434,
409,
447,
452,
375,
465,
452,
438,
493,
474,
506,
497,
474,
488,
483,
448,
477,
488,
510,
521,
485,
518,
474,
546,
591,
597,
618,
570,
576,
615,
606,
595,
591,
598,
594,
619,
612,
622,
614,
662,
652,
671,
696,
733,
749,
781,
754,
792,
769,
751,
744,
738,
749,
807,
821,
1005,
1321,
2198,
4212,
8661,
16395,
28334,
42380,
53992,
59037,
54986,
43676,
29754,
17328,
9378,
5153,
3802,
3687,
4177,
4638,
4623,
3907,
2978,
1966,
1284,
746,
500,
369,
341,
293,
287,
337,
319,
292,
335,
308,
312,
356,
327,
317,
306,
321,
319,
349,
353,
346,
336,
348,
349,
351,
339,
346,
331,
342,
367,
368,
356,
357,
380,
366,
366,
363,
389,
375,
375,
377,
356,
383,
387,
376,
382,
380,
383,
396,
429,
374,
388,
373,
416,
406,
427,
396,
402,
403,
417,
403,
412,
403,
405,
405,
396,
417,
405,
429,
433,
458,
434,
433,
450,
431,
449,
474,
439,
457,
468,
483,
416,
434,
425,
428,
414,
406,
464,
452,
435,
432,
432,
444,
471,
458,
436,
497,
436,
454,
472,
482,
512,
439,
468,
476,
480,
446,
447,
468,
445,
483,
469,
479,
434,
434,
437,
447,
445,
444,
458,
462,
468,
487,
448,
450,
459,
445,
461,
458,
492,
496,
476,
466,
483,
472,
487,
454,
459,
422,
450,
424,
409,
444,
450,
450,
454,
452,
462,
514,
519,
502,
461,
443,
451,
459,
490,
475,
493,
475,
491,
485,
464,
479,
471,
452,
497,
458,
461,
479,
490,
457,
516,
455,
445,
481,
489,
474,
475,
504,
491,
450,
487,
465,
526,
460,
465,
466,
496,
499,
456,
476,
531,
463,
492,
465,
451,
473,
495,
466,
526,
473,
445,
460,
516,
480,
472,
486,
457,
488,
478,
427,
469,
455,
500,
482,
457,
500,
482,
466,
454,
494,
490,
497,
496,
470,
473,
499,
478,
482,
447,
459,
424,
468,
488,
487,
517,
495,
538,
508,
482,
502,
518,
548,
598,
602,
668,
866,
1209,
1800,
2896,
4401,
6482,
9359,
12261,
15423,
18019,
19378,
19778,
18652,
16583,
13832,
10429,
7597,
5179,
3347,
2074,
1394,
905,
685,
579,
496,
451,
507,
488,
486,
463,
449,
479,
476,
437,
469,
481,
469,
449,
499,
501,
488,
509,
467,
556,
601,
692,
771,
957,
1253,
1592,
1941,
2397,
2732,
2930,
3102,
3066,
2828,
2506,
2019,
1717,
1273,
950,
736,
509,
371,
308,
294,
276,
260,
228,
251,
245,
255,
218,
265,
247,
270,
240,
256,
232,
260,
257,
258,
242,
262,
226,
270,
257,
269,
256,
262,
233,
215,
257,
223,
210,
237,
246,
231,
258,
247,
215,
221,
222,
227,
221,
241,
229,
255,
230,
234,
232,
235,
224,
235,
233,
261,
226,
271,
259,
221,
245,
252,
262,
247,
253,
238,
246,
245,
240,
250,
228,
231,
233,
228,
253,
253,
222,
231,
210,
235,
217,
248,
221,
216,
253,
236,
236,
244,
220,
263,
221,
204,
226,
221,
231,
218,
252,
225,
240,
230,
238,
235,
229,
230,
220,
236,
224,
224,
232,
224,
211,
217,
224,
203,
218,
216,
224,
216,
226,
232,
216,
205,
207,
219,
211,
216,
223,
207,
223,
220,
220,
204,
215,
212,
201,
214,
217,
223,
218,
227,
205,
215,
213,
210,
207,
198,
203,
188,
226,
206,
197,
190,
197,
188,
221,
226,
211,
229,
200,
210,
192,
195,
191,
224,
206,
195,
188,
217,
182,
194,
174,
194,
185,
187,
215,
202,
183,
185,
196,
210,
173,
192,
201,
184,
194,
192,
195,
196,
185,
185,
172,
199,
163,
171,
187,
207,
202,
196,
181,
158,
185,
168,
199,
170,
175,
181,
176,
176,
151,
214,
171,
215,
179,
165,
192,
164,
168,
174,
188,
168,
171,
176,
176,
151,
173,
153,
177,
176,
172,
156,
151,
164,
177,
163,
161,
153,
175,
146,
154,
185,
138,
153,
136,
150,
165,
153,
156,
165,
171,
140,
128,
143,
141,
158,
129,
145,
138,
151,
167,
151,
135,
153,
154,
151,
135,
149,
129,
143,
154,
148,
131,
121,
150,
141,
146,
132,
139,
158,
143,
125,
121,
139,
160,
124,
131,
121,
138,
119,
134,
121,
133,
127,
143,
120,
102,
133,
115,
131,
121,
116,
120,
112,
107,
145,
104,
136,
111,
129,
114,
132,
111,
107,
116,
104,
115,
108,
128,
111,
111,
123,
104,
126,
126,
121,
102,
132,
118,
124,
131,
97,
104,
101,
90,
100,
98,
111,
93,
97,
100,
112,
112,
93,
90,
97,
101,
78,
112,
91,
109,
94,
105,
89,
95,
82,
73,
102,
79,
93,
88,
80,
85,
94,
95,
75,
75,
97,
80,
85,
65,
87,
85,
89,
69,
73,
76,
54,
67,
85,
94,
76,
66,
82,
85,
61,
70,
64,
79,
67,
77,
73,
67,
69,
64,
71,
73,
64,
69,
57,
47,
60,
68,
59,
54,
72,
58,
48,
68,
56,
60,
50,
57,
58,
63,
60,
82,
64,
48,
57,
66,
47,
49,
51,
50,
49,
44,
47,
55,
53,
41,
65,
39,
36,
37,
53,
43,
39,
53,
32,
39,
38,
42,
47,
39,
33,
37,
38,
41,
37,
38,
43,
39,
37,
28,
24,
31,
29,
41,
29,
34,
24,
33,
29,
25,
24,
28,
31,
32,
32,
22,
31,
26,
28,
29,
29,
20,
31,
22,
12,
20,
23,
19,
18,
16,
22,
21,
18,
29,
18,
15,
11,
18,
15,
11,
26,
14,
13,
16,
14,
14,
14,
12,
15,
9,
16,
10,
7,
8,
11,
11,
7,
6,
7,
6,
4,
5,
8,
5,
7,
3,
6,
5,
6,
0,
4,
1,
1,
0,
1,
0,
1,
2,
0,
0,
1,
0,
0,
0,
1,
0,
0,
0,
0,
1,
0,
0,
0,
0,
1,
0,
0,
0,
0,
0,
0,
2,
0,
0,
0,
0,
0,
0,
0,
0,
0,
0,
0,
0,
1,
0,
0,
0,
0,
0,
0,
0,
0,
0,
0,
0,
0,
0,
1,
0,
0,
0,
0,
1,
0,
0,
0,
0,
0,
0,
0,
0,
0,
0,
0,
0,
1,
0,
0,
0,
0,
0,
0,
0,
0,
0,
0,
1,
0,
0,
0,
1,
0,
0,
1,
0,
0,
0,
0,
0,
0,
0,
0,
0,
0,
0,
0,
0,
1,
0,
0,
0,
0,
0,
0,
0,
0,
0,
1,
0,
0,
1,
0,
0,
1,
0,
1,
0,
0,
0,
0,
2,
0,
0,
0,
0,
0,
0,
0,
0,
0,
0,
1,
0,
0,
1,
0,
1,
0,
0,
0,
0,
1,
0,
0,
0,
0,
0,
0,
0,
0,
0,
0,
0,
1,
0,
0,
0,
0,
0,
1,
0,
0,
0,
0,
0,
0,
0,
0,
1,
0,
0,
0,
0,
0,
0,
0,
0,
0,
1,
1,
0,
0,
0,
0,
0,
1,
0,
0,
0,
1,
0,
0,
0,
0,
0,
0,
0,
0,
0,
0,
0,
0,
1,
0,
0,
0,
0,
0,
1,
0,
1,
0,
0,
0,
0,
0,
0,
0,
1,
0,
0,
0,
0,
0,
0,
0,
0,
0,
0,
0,
0,
0,
0,
0,
0,
0,
1,
0,
0,
0,
0,
0,
0,
0,
1,
0,
0,
0,
0,
0,
0,
0,
0,
0,
0,
0,
0,
0,
0,
0,
0,
0,
0,
1,
1,
0,
0,
0,
0,
1,
0,
0,
1,
0,
0,
0,
0,
0,
0,
0,
0,
0,
1,
0,
0,
1,
0,
0,
1,
0,
0,
0,
1,
0,
0,
0,
0,
0,
0,
0,
0,
0,
0,
0,
0,
0,
0,
0,
0,
0,
0,
0,
0,
1,
0,
0,
0,
0,
0,
0,
0,
0,
0,
#ENDOFDATA   :