File: NeXLSpectrum/Pyrite fragments/Pyrite_1_B2_15kV10nA130kHz_133kHz_100s.msa
#FORMAT      : EMSA/MAS Spectral Data File
#VERSION     : 1.0
#TITLE       : Bruker Nano spectrum Acquisition
#DATE        : 23-AUG-2019
#TIME        : 10:40
#OWNER       : Bruker Nano
#NPOINTS     : 4096
#NCOLUMNS    : 1
#XUNITS      : eV
#YUNITS      : counts
#DATATYPE    : Y
#XPERCHAN    : 5.00257
#OFFSET      : -482.8305
#BEAMKV      : 15
#SIGNALTYPE  : EDS
#ELEVANGLE   : 40
#AZIMANGLE   : 45
#LIVETIME    : 100
#REALTIME    : 133.183
#PROBECUR    : 10
#TAUWIND     : 0
#TDEADLYR    : 0
#TACTLYR     : 0.045
#TALWIND     : 0.004
#CHOFFSET    : 0.0
#XLABEL      : Energy (eV)
#YLABEL      : Counts
#EDSDET      : SDUTW
##DET_HASH   : c6370f9e-cc72-7559-f57e-203d75c8942b
##CALIB_HASH : fcf71094-1a10-2882-685e-00197fff5925
##SAMPLE     : <BulkSample id="1">\n<mOrientation id="2">\n<double>0.0</double>\n<double>0.0</double>\n<double>-1.0</double>\n</mOrientation>\n</BulkSample>
#SPECTRUM    :
0,
0,
0,
0,
0,
0,
0,
0,
0,
0,
0,
0,
0,
0,
0,
0,
1,
0,
9,
21,
42,
39,
60,
50,
53,
51,
80,
368,
4231,
31139,
126415,
281715,
340359,
224593,
81611,
16519,
2152,
346,
199,
56,
507,
4058,
4612,
3830,
2349,
1461,
1139,
1363,
2042,
2868,
3561,
3291,
2299,
1451,
1193,
1262,
1546,
1858,
2113,
2061,
2081,
2058,
2415,
3049,
4128,
6043,
7844,
8608,
7762,
7219,
7869,
10555,
14176,
16756,
16866,
16890,
23350,
39909,
60102,
70448,
62497,
42196,
22650,
11576,
7066,
5686,
5238,
5010,
4783,
4803,
4631,
4517,
4512,
4422,
4422,
4641,
4720,
4701,
4760,
4814,
4877,
4955,
4993,
4927,
5058,
4910,
5156,
5203,
5175,
5329,
5255,
5283,
5360,
5312,
5466,
5401,
5501,
5504,
5632,
5594,
5478,
5642,
5558,
5583,
5563,
5589,
5667,
5684,
5586,
5645,
5716,
5661,
5740,
5472,
5469,
5403,
5360,
5273,
5142,
5227,
5110,
5044,
5037,
5252,
5199,
5123,
5223,
5291,
5293,
5227,
5256,
5215,
5254,
5101,
5073,
5097,
4975,
5073,
4886,
4898,
4980,
5119,
4988,
5053,
5027,
5125,
5127,
5245,
5217,
5201,
5117,
5051,
4958,
5028,
4945,
4948,
5173,
6007,
7590,
11843,
22366,
44179,
84339,
143770,
213462,
271735,
297320,
276984,
220712,
150303,
88980,
48434,
27190,
19522,
19461,
21880,
23827,
23484,
20539,
16222,
11662,
7977,
5507,
4100,
3472,
3107,
2952,
2962,
2893,
2911,
2846,
2832,
2847,
2822,
2818,
2783,
2800,
2838,
2791,
2692,
2723,
2769,
2774,
2653,
2721,
2677,
2694,
2681,
2705,
2705,
2667,
2598,
2601,
2506,
2566,
2624,
2548,
2507,
2468,
2476,
2525,
2503,
2414,
2484,
2444,
2411,
2380,
2365,
2302,
2359,
2437,
2363,
2350,
2386,
2307,
2371,
2252,
2295,
2223,
2319,
2243,
2280,
2253,
2203,
2275,
2162,
2114,
2201,
2185,
2084,
2142,
2104,
2165,
2072,
2121,
2118,
2130,
2070,
2044,
2040,
2028,
2059,
1978,
2029,
1997,
2026,
1996,
1984,
1927,
1977,
1930,
1938,
1948,
1950,
1872,
1936,
1909,
1924,
1845,
1857,
1884,
1894,
1836,
1816,
1857,
1826,
1847,
1844,
1853,
1786,
1793,
1748,
1778,
1681,
1757,
1753,
1696,
1721,
1675,
1757,
1658,
1718,
1693,
1681,
1676,
1618,
1618,
1640,
1617,
1702,
1623,
1655,
1565,
1569,
1575,
1566,
1478,
1530,
1481,
1425,
1383,
1331,
1328,
1312,
1323,
1357,
1358,
1380,
1378,
1400,
1421,
1400,
1384,
1383,
1385,
1400,
1399,
1483,
1408,
1491,
1404,
1410,
1407,
1429,
1471,
1374,
1441,
1418,
1407,
1351,
1329,
1367,
1242,
1262,
1336,
1331,
1295,
1303,
1269,
1306,
1337,
1328,
1294,
1234,
1242,
1226,
1272,
1220,
1263,
1276,
1318,
1275,
1268,
1240,
1217,
1276,
1248,
1191,
1260,
1199,
1184,
1203,
1226,
1161,
1245,
1171,
1184,
1184,
1176,
1121,
1110,
1099,
1068,
1127,
1148,
1107,
1083,
1090,
1047,
1082,
1112,
1117,
1141,
1113,
1045,
1075,
1097,
1060,
1087,
1040,
1073,
1058,
1018,
1033,
1040,
1063,
1003,
1044,
1030,
1064,
1052,
1023,
1033,
1140,
1074,
1142,
1256,
1479,
1790,
2446,
3651,
5650,
8345,
12576,
17748,
23250,
29178,
33983,
36411,
37148,
35580,
31222,
25671,
20060,
14288,
9786,
6299,
4110,
2711,
1841,
1388,
1139,
1074,
927,
1003,
969,
907,
936,
904,
904,
890,
882,
888,
915,
908,
964,
881,
900,
943,
998,
947,
1009,
1021,
1224,
1370,
1715,
2131,
2782,
3359,
3957,
4553,
5094,
5309,
5249,
4959,
4391,
3813,
3135,
2482,
1918,
1507,
1197,
1015,
859,
788,
717,
745,
717,
756,
677,
675,
681,
706,
693,
662,
667,
677,
747,
786,
790,
753,
728,
763,
699,
719,
703,
663,
693,
644,
641,
636,
641,
589,
625,
683,
655,
642,
610,
584,
617,
606,
554,
614,
630,
629,
584,
595,
582,
602,
566,
596,
595,
575,
649,
608,
553,
599,
628,
578,
613,
568,
531,
570,
531,
570,
554,
535,
556,
523,
572,
548,
561,
570,
577,
535,
524,
577,
546,
540,
542,
525,
534,
493,
447,
549,
503,
521,
527,
477,
537,
519,
527,
490,
498,
498,
478,
472,
460,
465,
444,
469,
472,
486,
475,
471,
432,
478,
447,
469,
461,
446,
493,
453,
459,
467,
451,
464,
438,
466,
484,
449,
434,
446,
459,
418,
452,
420,
469,
412,
463,
434,
419,
412,
460,
389,
453,
420,
417,
432,
393,
386,
371,
375,
367,
392,
382,
406,
383,
364,
386,
371,
381,
385,
375,
375,
374,
384,
366,
345,
401,
419,
426,
396,
359,
416,
373,
369,
377,
368,
332,
363,
365,
337,
339,
356,
365,
420,
328,
362,
354,
338,
356,
352,
319,
392,
349,
309,
307,
329,
307,
345,
336,
304,
295,
326,
359,
286,
336,
311,
295,
282,
317,
319,
297,
358,
333,
301,
292,
276,
297,
314,
296,
268,
310,
305,
325,
284,
254,
262,
273,
273,
301,
291,
293,
257,
242,
292,
276,
261,
272,
280,
243,
246,
259,
278,
282,
262,
258,
270,
268,
281,
230,
245,
229,
249,
269,
240,
225,
241,
267,
212,
241,
265,
230,
237,
236,
226,
226,
236,
198,
232,
229,
205,
195,
232,
232,
211,
202,
215,
186,
209,
207,
214,
199,
209,
218,
200,
207,
194,
212,
212,
188,
202,
211,
190,
192,
212,
184,
186,
184,
173,
193,
180,
153,
197,
199,
195,
177,
193,
166,
179,
188,
178,
138,
167,
175,
169,
155,
165,
182,
180,
164,
195,
149,
182,
164,
152,
159,
158,
153,
165,
152,
193,
135,
162,
137,
151,
151,
139,
132,
152,
139,
147,
117,
137,
148,
130,
150,
138,
132,
152,
119,
127,
138,
141,
138,
116,
105,
121,
124,
108,
140,
113,
150,
110,
107,
102,
127,
95,
107,
110,
104,
106,
114,
98,
106,
91,
101,
83,
91,
83,
95,
96,
85,
100,
107,
90,
91,
84,
108,
97,
88,
99,
94,
81,
100,
84,
89,
93,
74,
88,
82,
77,
81,
90,
87,
81,
79,
83,
71,
79,
73,
79,
79,
86,
63,
77,
72,
61,
61,
56,
73,
69,
63,
68,
50,
61,
56,
65,
62,
62,
61,
47,
55,
57,
67,
44,
65,
53,
53,
56,
49,
60,
59,
54,
42,
37,
52,
48,
42,
48,
47,
38,
40,
48,
38,
46,
42,
45,
46,
41,
33,
39,
36,
38,
42,
42,
36,
40,
38,
45,
36,
26,
33,
28,
33,
31,
16,
25,
37,
29,
30,
31,
27,
37,
19,
26,
22,
25,
17,
19,
21,
20,
24,
19,
30,
10,
17,
17,
9,
7,
26,
25,
7,
21,
17,
13,
24,
15,
7,
15,
7,
16,
6,
10,
12,
17,
13,
12,
8,
6,
8,
8,
3,
6,
0,
10,
9,
10,
4,
4,
0,
2,
0,
0,
0,
0,
0,
2,
0,
0,
0,
0,
0,
0,
0,
0,
0,
0,
0,
0,
0,
0,
0,
0,
0,
0,
0,
0,
0,
0,
0,
0,
0,
0,
2,
1,
0,
0,
0,
3,
0,
0,
0,
0,
0,
0,
0,
0,
0,
0,
0,
0,
0,
0,
0,
1,
0,
0,
0,
0,
1,
0,
2,
1,
0,
2,
0,
0,
0,
0,
0,
0,
0,
0,
0,
0,
0,
0,
0,
0,
0,
0,
0,
0,
1,
0,
0,
0,
0,
0,
2,
0,
0,
0,
0,
0,
0,
0,
2,
0,
0,
1,
0,
0,
1,
0,
0,
0,
1,
1,
0,
0,
0,
2,
0,
0,
0,
0,
0,
0,
0,
0,
0,
0,
0,
0,
0,
0,
0,
0,
0,
1,
0,
0,
0,
0,
0,
0,
0,
0,
0,
0,
2,
0,
0,
0,
0,
0,
0,
0,
0,
1,
0,
0,
1,
0,
0,
0,
0,
1,
0,
0,
0,
1,
0,
1,
0,
0,
0,
0,
0,
0,
0,
0,
1,
0,
0,
0,
0,
2,
0,
0,
0,
0,
0,
0,
0,
0,
0,
0,
1,
0,
0,
0,
1,
0,
0,
0,
0,
0,
0,
0,
0,
0,
0,
0,
0,
1,
0,
0,
0,
0,
0,
0,
0,
0,
0,
0,
1,
0,
0,
0,
0,
0,
0,
0,
0,
0,
0,
0,
0,
0,
0,
0,
0,
1,
0,
0,
0,
0,
1,
0,
0,
0,
1,
1,
0,
0,
0,
0,
0,
0,
0,
0,
0,
0,
0,
0,
0,
0,
0,
0,
0,
0,
0,
0,
0,
0,
0,
0,
0,
0,
0,
0,
0,
0,
0,
0,
0,
0,
0,
0,
0,
0,
0,
0,
1,
0,
0,
0,
0,
1,
0,
0,
0,
0,
0,
0,
2,
0,
0,
1,
1,
0,
0,
1,
1,
0,
1,
0,
1,
2,
0,
0,
0,
0,
1,
1,
0,
0,
0,
0,
1,
1,
2,
0,
2,
0,
0,
0,
1,
0,
0,
0,
0,
#ENDOFDATA   :