File: NeXLSpectrum/Pyrite fragments/Pyrite_1_G1_15kV10nA130kHz_129kHz_100s.msa
#FORMAT      : EMSA/MAS Spectral Data File
#VERSION     : 1.0
#TITLE       : Bruker Nano spectrum Acquisition
#DATE        : 23-AUG-2019
#TIME        : 00:02
#OWNER       : Bruker Nano
#NPOINTS     : 4096
#NCOLUMNS    : 1
#XUNITS      : eV
#YUNITS      : counts
#DATATYPE    : Y
#XPERCHAN    : 5.00257
#OFFSET      : -482.8305
#BEAMKV      : 15
#SIGNALTYPE  : EDS
#ELEVANGLE   : 40
#AZIMANGLE   : 45
#LIVETIME    : 100
#REALTIME    : 131.588
#PROBECUR    : 10
#TAUWIND     : 0
#TDEADLYR    : 0
#TACTLYR     : 0.045
#TALWIND     : 0.004
#CHOFFSET    : 0.0
#XLABEL      : Energy (eV)
#YLABEL      : Counts
#EDSDET      : SDUTW
##DET_HASH   : c6370f9e-cc72-7559-f57e-203d75c8942b
##CALIB_HASH : fcf71094-1a10-2882-685e-00197fff5925
##SAMPLE     : <BulkSample id="1">\n<mOrientation id="2">\n<double>0.0</double>\n<double>0.0</double>\n<double>-1.0</double>\n</mOrientation>\n</BulkSample>
#SPECTRUM    :
0,
0,
0,
0,
0,
0,
0,
0,
0,
0,
0,
0,
0,
0,
0,
0,
0,
1,
13,
16,
33,
49,
54,
56,
62,
67,
74,
379,
4210,
31098,
126829,
281165,
339551,
223990,
81187,
16485,
2107,
324,
154,
113,
484,
3663,
4014,
3311,
2011,
1287,
985,
1122,
1740,
2417,
3055,
2775,
2011,
1271,
982,
1034,
1104,
1312,
1386,
1388,
1577,
1684,
2013,
2405,
2905,
3485,
3884,
3963,
4292,
4733,
6498,
9668,
13308,
15740,
15551,
15807,
22006,
36766,
56220,
65943,
57723,
38315,
20811,
10143,
6345,
5136,
4556,
4366,
4177,
4180,
4083,
3946,
3893,
3833,
4012,
3993,
4028,
4114,
4223,
4228,
4261,
4392,
4446,
4423,
4670,
4621,
4651,
4687,
4864,
4771,
4918,
4843,
5016,
4990,
5075,
5065,
5213,
5069,
5220,
5276,
5162,
5244,
5164,
5184,
5237,
5285,
5235,
5291,
5356,
5292,
5332,
5353,
5298,
5314,
5181,
5056,
5067,
4898,
4855,
4864,
4854,
4928,
4955,
5022,
4935,
5064,
4965,
5091,
5020,
5081,
5131,
5033,
5105,
4986,
4883,
4967,
4861,
4823,
4782,
4728,
4826,
4768,
4915,
4889,
4822,
4977,
5046,
4983,
5075,
5062,
4916,
4961,
4975,
4789,
4687,
4935,
4939,
5709,
7375,
11624,
21728,
43480,
82479,
140927,
209606,
267432,
292394,
272467,
216695,
146920,
87242,
46642,
26564,
19072,
19127,
21282,
23244,
22779,
20000,
15775,
11334,
7720,
5354,
3938,
3248,
3041,
2801,
2769,
2712,
2659,
2693,
2771,
2714,
2625,
2669,
2611,
2681,
2625,
2654,
2681,
2639,
2567,
2627,
2618,
2580,
2563,
2629,
2562,
2628,
2550,
2548,
2537,
2481,
2505,
2480,
2480,
2420,
2411,
2444,
2452,
2403,
2397,
2371,
2335,
2415,
2356,
2305,
2303,
2385,
2371,
2257,
2299,
2333,
2237,
2227,
2270,
2267,
2258,
2262,
2240,
2286,
2242,
2193,
2230,
2187,
2150,
2219,
2117,
2149,
2147,
2145,
1990,
2094,
2081,
2108,
2011,
2030,
2032,
2026,
2049,
2046,
2006,
1960,
1923,
1963,
1957,
1966,
1936,
1937,
1984,
1947,
1936,
1968,
1934,
1876,
1824,
1827,
1824,
1840,
1866,
1862,
1806,
1778,
1780,
1762,
1792,
1809,
1767,
1778,
1762,
1754,
1713,
1739,
1696,
1802,
1710,
1671,
1756,
1705,
1675,
1654,
1691,
1660,
1624,
1616,
1654,
1615,
1591,
1640,
1631,
1614,
1581,
1542,
1517,
1547,
1528,
1484,
1473,
1436,
1413,
1385,
1337,
1340,
1332,
1333,
1341,
1354,
1393,
1385,
1368,
1383,
1388,
1395,
1390,
1416,
1405,
1366,
1432,
1437,
1437,
1328,
1382,
1381,
1330,
1370,
1370,
1378,
1362,
1388,
1383,
1340,
1294,
1392,
1358,
1353,
1303,
1331,
1358,
1308,
1306,
1315,
1296,
1276,
1318,
1274,
1237,
1210,
1233,
1221,
1249,
1313,
1211,
1196,
1200,
1197,
1174,
1216,
1179,
1206,
1224,
1232,
1177,
1217,
1143,
1138,
1151,
1222,
1127,
1175,
1158,
1152,
1081,
1120,
1122,
1097,
1143,
1169,
1090,
1085,
1120,
1103,
1120,
1046,
1147,
1095,
1049,
1052,
1045,
1112,
1037,
1033,
1055,
1068,
1081,
1017,
1065,
1051,
1080,
985,
1043,
1101,
1094,
1121,
1097,
1111,
1170,
1206,
1363,
1723,
2514,
3521,
5468,
8500,
12539,
17569,
23087,
29108,
33652,
36494,
36844,
34652,
30793,
25485,
19740,
14028,
9666,
6431,
4208,
2706,
1895,
1352,
1163,
1031,
996,
917,
843,
977,
885,
892,
843,
880,
830,
856,
876,
907,
889,
866,
877,
914,
918,
913,
989,
1027,
1182,
1390,
1758,
2121,
2701,
3315,
4024,
4571,
5021,
5250,
5269,
4906,
4363,
3769,
3089,
2366,
1913,
1515,
1197,
991,
869,
817,
771,
719,
703,
703,
707,
693,
719,
716,
677,
679,
675,
729,
733,
709,
698,
734,
724,
704,
749,
704,
695,
647,
653,
640,
625,
625,
641,
650,
620,
651,
627,
556,
660,
579,
614,
603,
620,
579,
632,
608,
606,
561,
626,
585,
615,
603,
553,
582,
535,
627,
574,
589,
568,
562,
550,
599,
595,
538,
539,
563,
606,
525,
523,
559,
535,
558,
560,
517,
528,
566,
580,
586,
547,
535,
550,
487,
510,
538,
523,
521,
527,
523,
494,
504,
514,
480,
472,
469,
472,
470,
478,
467,
465,
465,
456,
471,
469,
460,
481,
436,
444,
451,
438,
455,
431,
425,
421,
424,
420,
445,
427,
441,
417,
432,
430,
403,
467,
415,
454,
441,
395,
411,
477,
451,
440,
419,
445,
458,
394,
414,
415,
406,
402,
469,
436,
425,
409,
394,
415,
404,
388,
389,
407,
392,
368,
404,
378,
370,
369,
377,
372,
387,
362,
357,
378,
364,
381,
369,
367,
349,
390,
350,
374,
342,
366,
382,
343,
351,
339,
379,
365,
367,
320,
320,
342,
338,
325,
323,
299,
324,
352,
342,
335,
325,
314,
310,
315,
312,
318,
315,
321,
301,
317,
278,
295,
323,
285,
321,
316,
265,
292,
285,
299,
274,
313,
298,
295,
295,
291,
318,
279,
289,
308,
265,
277,
282,
321,
284,
291,
261,
274,
257,
261,
289,
261,
254,
256,
276,
249,
262,
267,
261,
251,
273,
238,
223,
269,
267,
235,
268,
260,
265,
269,
238,
207,
225,
253,
237,
205,
188,
202,
240,
246,
261,
227,
227,
225,
222,
209,
196,
207,
230,
212,
229,
197,
194,
215,
222,
230,
185,
204,
212,
207,
197,
208,
211,
195,
185,
217,
203,
188,
206,
191,
164,
203,
223,
159,
187,
186,
171,
182,
182,
203,
175,
151,
175,
184,
150,
163,
154,
155,
184,
170,
165,
151,
167,
152,
163,
155,
174,
150,
137,
165,
125,
159,
162,
142,
159,
165,
155,
135,
158,
157,
157,
155,
159,
152,
130,
138,
121,
115,
142,
152,
133,
132,
136,
121,
142,
123,
156,
149,
122,
117,
117,
125,
107,
101,
114,
120,
123,
107,
116,
102,
112,
104,
119,
93,
135,
99,
125,
99,
110,
118,
106,
87,
86,
118,
108,
111,
105,
102,
100,
114,
98,
92,
96,
103,
100,
89,
90,
96,
92,
92,
85,
82,
90,
89,
91,
73,
70,
75,
79,
83,
88,
89,
80,
71,
74,
59,
65,
68,
85,
63,
57,
63,
72,
75,
93,
79,
53,
66,
60,
62,
65,
43,
47,
64,
52,
54,
66,
71,
53,
57,
53,
51,
57,
50,
56,
40,
47,
57,
62,
58,
52,
67,
41,
54,
53,
45,
57,
45,
34,
43,
49,
41,
44,
39,
42,
36,
25,
31,
43,
32,
49,
33,
40,
35,
25,
34,
32,
25,
31,
35,
25,
31,
25,
28,
31,
31,
31,
16,
23,
28,
28,
25,
22,
18,
20,
28,
21,
24,
17,
15,
19,
17,
17,
21,
21,
26,
22,
16,
15,
17,
11,
7,
11,
18,
8,
14,
8,
6,
11,
9,
6,
10,
8,
9,
5,
8,
7,
4,
2,
3,
9,
2,
1,
3,
0,
3,
1,
5,
0,
0,
0,
0,
0,
0,
0,
0,
0,
0,
0,
0,
0,
0,
0,
0,
2,
0,
0,
0,
0,
1,
0,
0,
0,
0,
0,
0,
0,
0,
0,
0,
0,
0,
0,
0,
0,
0,
0,
0,
4,
0,
1,
0,
1,
0,
0,
0,
0,
0,
0,
1,
0,
1,
0,
0,
0,
0,
0,
0,
0,
0,
0,
0,
0,
0,
0,
0,
0,
0,
0,
0,
0,
0,
0,
0,
0,
0,
0,
0,
1,
0,
0,
2,
0,
1,
1,
0,
0,
0,
0,
1,
0,
0,
0,
0,
0,
1,
0,
0,
0,
1,
0,
0,
2,
0,
0,
0,
0,
1,
0,
0,
0,
0,
0,
0,
0,
0,
0,
1,
0,
0,
0,
0,
0,
0,
0,
0,
0,
0,
0,
0,
0,
0,
1,
0,
0,
0,
0,
0,
0,
1,
0,
1,
0,
0,
0,
0,
0,
0,
0,
0,
0,
0,
0,
0,
1,
0,
0,
0,
0,
0,
1,
0,
1,
2,
0,
0,
0,
0,
0,
0,
0,
0,
0,
0,
0,
0,
0,
0,
0,
0,
0,
1,
0,
0,
0,
0,
0,
0,
0,
0,
1,
0,
1,
0,
3,
0,
0,
0,
0,
0,
0,
0,
0,
0,
0,
2,
0,
0,
0,
0,
0,
0,
0,
0,
0,
1,
0,
0,
2,
0,
0,
0,
0,
0,
0,
1,
0,
0,
0,
0,
0,
1,
0,
0,
0,
0,
0,
0,
0,
0,
0,
0,
0,
0,
0,
0,
1,
0,
0,
0,
0,
0,
0,
0,
0,
0,
0,
0,
0,
0,
0,
0,
0,
0,
0,
0,
0,
0,
0,
0,
0,
0,
0,
0,
0,
0,
0,
0,
1,
0,
1,
0,
0,
0,
0,
0,
0,
0,
1,
0,
0,
0,
0,
0,
0,
1,
0,
1,
0,
0,
1,
0,
0,
0,
0,
0,
0,
0,
0,
1,
0,
0,
0,
0,
2,
0,
0,
0,
0,
0,
0,
1,
0,
1,
1,
1,
0,
0,
#ENDOFDATA   :