File: NeXLSpectrum/Pyrite fragments/Pyrite_1_C3_15kV10nA130kHz_86kHz_100s.msa
#FORMAT      : EMSA/MAS Spectral Data File
#VERSION     : 1.0
#TITLE       : Bruker Nano spectrum Acquisition
#DATE        : 23-AUG-2019
#TIME        : 10:51
#OWNER       : Bruker Nano
#NPOINTS     : 4096
#NCOLUMNS    : 1
#XUNITS      : eV
#YUNITS      : counts
#DATATYPE    : Y
#XPERCHAN    : 5.00257
#OFFSET      : -482.8305
#BEAMKV      : 15
#SIGNALTYPE  : EDS
#ELEVANGLE   : 40
#AZIMANGLE   : 45
#LIVETIME    : 100
#REALTIME    : 119.117
#PROBECUR    : 10
#TAUWIND     : 0
#TDEADLYR    : 0
#TACTLYR     : 0.045
#TALWIND     : 0.004
#CHOFFSET    : 0.0
#XLABEL      : Energy (eV)
#YLABEL      : Counts
#EDSDET      : SDUTW
##DET_HASH   : c6370f9e-cc72-7559-f57e-203d75c8942b
##CALIB_HASH : fcf71094-1a10-2882-685e-00197fff5925
##SAMPLE     : <BulkSample id="1">\n<mOrientation id="2">\n<double>0.0</double>\n<double>0.0</double>\n<double>-1.0</double>\n</mOrientation>\n</BulkSample>
#SPECTRUM    :
0,
0,
0,
0,
0,
0,
0,
0,
0,
0,
0,
0,
0,
0,
0,
0,
0,
1,
4,
9,
9,
31,
21,
34,
28,
27,
34,
209,
2450,
18719,
74955,
168874,
204067,
135240,
48701,
9608,
1143,
132,
0,
0,
73,
787,
873,
776,
559,
436,
527,
826,
1810,
3409,
4865,
4678,
2996,
1437,
612,
446,
480,
698,
746,
720,
687,
683,
808,
1153,
1981,
3472,
5111,
5608,
4805,
3536,
2803,
3006,
3582,
4186,
4370,
4428,
6268,
10631,
16126,
18801,
16391,
10860,
5862,
2831,
1718,
1391,
1292,
1249,
1252,
1235,
1242,
1182,
1110,
1299,
1289,
1326,
1339,
1362,
1399,
1455,
1466,
1499,
1525,
1587,
1582,
1527,
1572,
1613,
1608,
1673,
1687,
1684,
1838,
1796,
1877,
1878,
1941,
1903,
2042,
2094,
2019,
2042,
2055,
2117,
2121,
2170,
2161,
2222,
2267,
2358,
2371,
2508,
2421,
2411,
2377,
2439,
2386,
2318,
2352,
2422,
2388,
2445,
2439,
2391,
2460,
2491,
2573,
2554,
2661,
2694,
2697,
2743,
2747,
2624,
2620,
2698,
2773,
2756,
2681,
2774,
2852,
2868,
2844,
3024,
3010,
3010,
3135,
3102,
3046,
3190,
3200,
3089,
3225,
3039,
3068,
3139,
3389,
3782,
4957,
7926,
15306,
30428,
58314,
100119,
148956,
190933,
208449,
194350,
154613,
105730,
62028,
33165,
18415,
13139,
13163,
15146,
16417,
15993,
13897,
10475,
7326,
4788,
3091,
2205,
1788,
1559,
1532,
1453,
1465,
1461,
1435,
1458,
1437,
1489,
1450,
1454,
1450,
1562,
1496,
1495,
1473,
1494,
1540,
1491,
1512,
1500,
1533,
1505,
1494,
1486,
1477,
1488,
1499,
1531,
1503,
1516,
1529,
1532,
1567,
1540,
1535,
1520,
1578,
1481,
1575,
1523,
1544,
1547,
1514,
1525,
1589,
1480,
1494,
1575,
1592,
1530,
1555,
1553,
1556,
1524,
1510,
1506,
1570,
1561,
1498,
1520,
1590,
1536,
1546,
1559,
1530,
1485,
1504,
1540,
1519,
1521,
1529,
1555,
1439,
1493,
1518,
1511,
1521,
1488,
1488,
1393,
1421,
1432,
1460,
1502,
1453,
1420,
1470,
1441,
1441,
1408,
1437,
1478,
1434,
1479,
1462,
1440,
1388,
1417,
1423,
1455,
1446,
1413,
1393,
1413,
1406,
1395,
1465,
1391,
1406,
1380,
1373,
1375,
1380,
1380,
1372,
1369,
1358,
1350,
1353,
1341,
1322,
1355,
1370,
1366,
1333,
1314,
1312,
1305,
1288,
1302,
1297,
1262,
1233,
1216,
1232,
1166,
1152,
1163,
1185,
1204,
1209,
1234,
1246,
1243,
1215,
1232,
1234,
1249,
1241,
1229,
1210,
1202,
1243,
1211,
1206,
1231,
1266,
1194,
1168,
1221,
1174,
1157,
1150,
1257,
1251,
1195,
1188,
1170,
1155,
1148,
1203,
1146,
1147,
1082,
1201,
1172,
1146,
1124,
1115,
1128,
1127,
1132,
1064,
1136,
1065,
1091,
1155,
1080,
1103,
1114,
1108,
1033,
1034,
1045,
1009,
1068,
1055,
1048,
1058,
1078,
1048,
1014,
1041,
1036,
1012,
978,
982,
1021,
1027,
990,
982,
943,
964,
962,
949,
1014,
1002,
987,
1024,
893,
949,
959,
914,
976,
933,
972,
980,
951,
992,
971,
926,
938,
964,
974,
938,
944,
1014,
994,
1010,
1033,
1176,
1280,
1548,
2201,
3177,
5055,
7887,
11322,
16343,
21783,
26993,
31436,
34389,
34674,
32642,
28955,
23678,
18210,
13299,
9190,
5897,
3731,
2408,
1726,
1241,
1048,
937,
859,
869,
870,
829,
864,
831,
900,
792,
818,
868,
847,
856,
761,
806,
868,
868,
889,
927,
898,
1055,
1113,
1374,
1622,
2006,
2491,
3163,
3755,
4311,
4819,
4913,
4948,
4655,
4135,
3531,
2817,
2263,
1778,
1313,
1054,
876,
749,
714,
651,
607,
562,
620,
593,
577,
597,
606,
582,
583,
592,
580,
581,
586,
551,
619,
570,
555,
578,
686,
579,
566,
565,
649,
565,
549,
552,
586,
560,
562,
577,
558,
535,
543,
525,
560,
542,
547,
528,
525,
540,
499,
541,
541,
537,
540,
528,
512,
523,
588,
525,
485,
550,
538,
546,
512,
538,
526,
519,
540,
475,
503,
491,
487,
512,
476,
528,
501,
472,
505,
491,
465,
503,
466,
476,
509,
471,
470,
463,
498,
449,
457,
478,
448,
458,
439,
464,
440,
431,
440,
438,
436,
446,
422,
410,
422,
421,
415,
424,
445,
420,
391,
386,
426,
410,
399,
397,
415,
426,
436,
351,
409,
436,
419,
411,
386,
437,
333,
404,
400,
381,
388,
419,
378,
398,
415,
367,
391,
365,
393,
402,
369,
363,
380,
391,
382,
371,
363,
394,
359,
366,
369,
356,
351,
367,
374,
353,
352,
370,
336,
357,
341,
367,
341,
348,
344,
337,
346,
335,
323,
361,
345,
320,
335,
361,
345,
332,
315,
317,
337,
321,
328,
344,
313,
325,
324,
347,
312,
318,
314,
276,
313,
311,
312,
290,
270,
325,
296,
295,
302,
293,
315,
289,
304,
313,
298,
267,
261,
262,
284,
295,
281,
298,
272,
292,
283,
296,
251,
281,
269,
274,
305,
292,
272,
261,
240,
266,
261,
235,
257,
277,
250,
259,
274,
263,
252,
242,
267,
267,
256,
264,
273,
224,
232,
248,
208,
241,
220,
239,
246,
247,
233,
218,
244,
209,
243,
236,
217,
220,
255,
229,
216,
210,
178,
219,
237,
204,
230,
210,
205,
197,
205,
220,
230,
184,
191,
222,
216,
213,
179,
193,
165,
186,
184,
180,
197,
188,
203,
166,
183,
186,
193,
182,
175,
187,
152,
204,
201,
184,
184,
156,
164,
189,
164,
198,
195,
171,
160,
134,
178,
180,
161,
156,
176,
160,
150,
146,
160,
158,
168,
156,
158,
149,
143,
140,
166,
133,
160,
154,
145,
167,
135,
119,
140,
122,
145,
146,
143,
141,
142,
135,
114,
145,
145,
139,
125,
142,
150,
146,
141,
110,
115,
135,
135,
116,
119,
125,
124,
123,
111,
133,
116,
110,
102,
115,
101,
103,
113,
121,
101,
94,
98,
101,
102,
104,
86,
92,
88,
92,
95,
105,
97,
94,
96,
92,
91,
92,
92,
88,
96,
92,
86,
84,
92,
93,
77,
68,
87,
64,
81,
91,
78,
72,
88,
88,
71,
77,
75,
61,
64,
68,
67,
64,
69,
64,
66,
39,
68,
52,
69,
63,
68,
44,
57,
67,
74,
56,
47,
90,
67,
59,
70,
61,
52,
51,
62,
70,
66,
48,
40,
53,
49,
40,
57,
45,
49,
60,
36,
50,
51,
46,
50,
34,
38,
46,
46,
34,
30,
38,
36,
34,
28,
35,
41,
33,
39,
34,
31,
43,
31,
28,
35,
36,
38,
25,
38,
29,
24,
28,
22,
26,
16,
23,
19,
34,
27,
24,
17,
26,
20,
16,
20,
18,
15,
13,
24,
14,
4,
11,
15,
9,
15,
20,
9,
17,
7,
12,
17,
16,
8,
8,
13,
14,
16,
5,
6,
6,
8,
0,
4,
12,
7,
5,
6,
3,
0,
0,
3,
2,
4,
0,
0,
1,
1,
1,
3,
0,
0,
0,
0,
4,
0,
0,
0,
0,
0,
0,
1,
0,
0,
0,
0,
0,
2,
0,
0,
0,
0,
0,
0,
0,
0,
0,
0,
3,
0,
4,
0,
0,
0,
1,
0,
1,
2,
0,
0,
0,
0,
1,
0,
1,
0,
0,
0,
0,
0,
0,
0,
0,
1,
0,
0,
0,
0,
0,
0,
0,
2,
0,
0,
0,
0,
0,
0,
0,
0,
0,
0,
1,
0,
1,
0,
0,
0,
0,
0,
0,
3,
0,
0,
0,
3,
0,
0,
0,
0,
0,
0,
0,
0,
0,
0,
0,
0,
1,
0,
0,
2,
0,
0,
0,
0,
0,
0,
1,
1,
0,
0,
0,
0,
0,
1,
1,
0,
0,
0,
0,
1,
0,
0,
0,
0,
0,
1,
0,
1,
0,
0,
0,
0,
2,
0,
0,
0,
0,
0,
0,
0,
0,
0,
0,
0,
0,
0,
0,
0,
0,
0,
1,
1,
0,
1,
0,
0,
0,
2,
0,
0,
0,
1,
0,
0,
0,
0,
0,
0,
0,
0,
0,
1,
0,
0,
0,
0,
0,
0,
0,
0,
0,
0,
0,
0,
0,
0,
0,
1,
0,
0,
0,
1,
0,
0,
0,
0,
0,
0,
0,
0,
0,
0,
0,
0,
0,
0,
0,
0,
0,
0,
0,
0,
0,
0,
0,
0,
0,
0,
0,
0,
0,
0,
0,
0,
0,
0,
0,
0,
0,
0,
0,
0,
0,
0,
0,
0,
0,
1,
0,
0,
0,
0,
0,
0,
0,
0,
0,
1,
0,
0,
0,
0,
0,
1,
0,
0,
0,
0,
0,
0,
1,
0,
0,
0,
0,
0,
0,
0,
2,
0,
0,
0,
2,
0,
1,
0,
1,
0,
0,
1,
0,
0,
0,
0,
0,
0,
0,
0,
0,
0,
1,
1,
0,
0,
0,
0,
0,
0,
0,
0,
0,
0,
0,
0,
0,
0,
0,
0,
0,
0,
0,
0,
0,
0,
0,
0,
0,
0,
0,
1,
0,
0,
0,
#ENDOFDATA   :