File: NeXLSpectrum/Pyrite fragments/Pyrite_1_G3_15kV10nA130kHz_129kHz_100s.msa
#FORMAT      : EMSA/MAS Spectral Data File
#VERSION     : 1.0
#TITLE       : Bruker Nano spectrum Acquisition
#DATE        : 23-AUG-2019
#TIME        : 00:08
#OWNER       : Bruker Nano
#NPOINTS     : 4096
#NCOLUMNS    : 1
#XUNITS      : eV
#YUNITS      : counts
#DATATYPE    : Y
#XPERCHAN    : 5.00257
#OFFSET      : -482.8305
#BEAMKV      : 15
#SIGNALTYPE  : EDS
#ELEVANGLE   : 40
#AZIMANGLE   : 45
#LIVETIME    : 100
#REALTIME    : 131.52
#PROBECUR    : 10
#TAUWIND     : 0
#TDEADLYR    : 0
#TACTLYR     : 0.045
#TALWIND     : 0.004
#CHOFFSET    : 0.0
#XLABEL      : Energy (eV)
#YLABEL      : Counts
#EDSDET      : SDUTW
##DET_HASH   : c6370f9e-cc72-7559-f57e-203d75c8942b
##CALIB_HASH : fcf71094-1a10-2882-685e-00197fff5925
##SAMPLE     : <BulkSample id="1">\n<mOrientation id="2">\n<double>0.0</double>\n<double>0.0</double>\n<double>-1.0</double>\n</mOrientation>\n</BulkSample>
#SPECTRUM    :
0,
0,
0,
0,
0,
0,
0,
0,
0,
0,
0,
0,
0,
0,
0,
0,
0,
0,
4,
20,
22,
55,
56,
53,
47,
57,
75,
333,
4298,
30861,
126610,
281351,
339757,
224067,
81464,
16279,
2119,
371,
101,
61,
499,
3631,
4018,
3251,
2036,
1233,
1001,
1149,
1650,
2449,
3037,
2813,
1995,
1209,
1005,
1030,
1135,
1325,
1422,
1460,
1545,
1663,
1920,
2255,
2810,
3391,
3996,
3918,
3959,
4740,
6872,
9714,
13140,
15457,
15834,
15886,
21764,
36966,
55846,
65220,
56942,
38218,
20512,
10253,
6304,
5052,
4623,
4318,
4275,
4165,
4040,
4009,
3856,
3911,
3967,
4043,
4070,
4047,
4187,
4185,
4319,
4414,
4395,
4467,
4539,
4612,
4798,
4814,
4881,
4836,
4778,
4865,
4944,
5011,
5077,
5081,
5122,
5271,
5171,
5264,
5093,
5088,
5161,
5259,
5295,
5237,
5309,
5325,
5312,
5329,
5384,
5398,
5334,
5333,
5365,
5167,
4997,
4957,
5007,
4936,
4941,
4939,
4866,
4914,
4913,
4973,
4947,
5050,
5023,
5137,
5063,
4995,
5017,
4854,
4935,
5020,
4827,
4808,
4706,
4738,
4754,
4859,
4798,
4766,
4926,
4975,
4923,
5050,
4965,
5037,
4957,
4806,
4888,
4821,
4760,
4910,
5259,
5661,
7215,
11638,
21871,
43674,
82396,
140878,
209182,
266872,
290899,
271997,
214877,
147128,
87400,
46840,
26614,
19196,
18998,
21299,
23304,
22894,
20005,
15816,
11431,
7886,
5309,
3884,
3151,
2923,
2750,
2758,
2736,
2708,
2709,
2723,
2683,
2730,
2791,
2630,
2618,
2709,
2685,
2694,
2686,
2677,
2657,
2614,
2618,
2657,
2615,
2620,
2585,
2586,
2595,
2552,
2516,
2477,
2486,
2474,
2512,
2420,
2429,
2391,
2394,
2409,
2411,
2398,
2362,
2361,
2309,
2272,
2323,
2318,
2310,
2298,
2318,
2309,
2292,
2254,
2232,
2251,
2299,
2184,
2202,
2193,
2227,
2139,
2184,
2132,
2151,
2043,
2125,
2113,
2044,
2057,
2121,
2038,
2056,
2023,
2041,
2040,
1979,
2042,
2002,
2042,
1938,
1969,
1990,
1923,
2016,
1989,
1951,
1944,
1903,
1898,
1905,
1870,
1870,
1945,
1838,
1846,
1864,
1823,
1844,
1811,
1883,
1750,
1797,
1809,
1851,
1747,
1802,
1722,
1779,
1811,
1710,
1684,
1727,
1698,
1690,
1680,
1608,
1674,
1619,
1661,
1586,
1622,
1625,
1625,
1598,
1652,
1552,
1648,
1580,
1600,
1585,
1498,
1492,
1472,
1475,
1434,
1415,
1420,
1337,
1320,
1307,
1332,
1350,
1366,
1383,
1419,
1361,
1360,
1386,
1355,
1390,
1393,
1396,
1379,
1392,
1435,
1425,
1415,
1434,
1394,
1451,
1400,
1408,
1398,
1372,
1401,
1341,
1374,
1349,
1389,
1324,
1371,
1351,
1324,
1291,
1248,
1277,
1267,
1339,
1345,
1326,
1298,
1204,
1237,
1235,
1312,
1271,
1219,
1213,
1186,
1290,
1216,
1218,
1226,
1208,
1217,
1205,
1207,
1181,
1210,
1205,
1195,
1154,
1102,
1164,
1155,
1078,
1121,
1158,
1174,
1103,
1124,
1133,
1062,
1121,
1100,
1086,
1085,
1131,
1157,
1087,
1089,
1060,
1112,
1083,
1037,
1057,
1074,
1000,
1052,
992,
1015,
1038,
1067,
1007,
969,
1059,
1026,
1066,
1056,
1038,
1107,
1048,
1188,
1190,
1404,
1731,
2348,
3632,
5475,
8268,
12411,
17133,
22865,
28606,
33406,
36312,
37009,
35298,
31010,
25544,
19583,
14226,
9791,
6456,
4137,
2605,
1835,
1473,
1164,
1033,
967,
990,
926,
908,
951,
897,
933,
878,
879,
870,
872,
915,
922,
898,
860,
892,
885,
935,
996,
1039,
1241,
1415,
1716,
2160,
2689,
3484,
3990,
4546,
5020,
5206,
5219,
4921,
4385,
3728,
3007,
2394,
1880,
1502,
1186,
945,
851,
814,
725,
714,
731,
680,
717,
714,
698,
668,
664,
662,
692,
752,
673,
697,
752,
783,
717,
706,
721,
685,
672,
669,
631,
671,
636,
624,
632,
638,
622,
618,
649,
630,
619,
624,
593,
595,
585,
588,
597,
557,
563,
617,
645,
600,
598,
565,
546,
593,
603,
565,
580,
577,
572,
599,
566,
589,
531,
550,
549,
549,
553,
583,
554,
566,
539,
556,
576,
584,
539,
578,
535,
539,
548,
549,
538,
563,
489,
540,
504,
481,
496,
542,
528,
496,
497,
539,
518,
490,
492,
468,
462,
482,
451,
455,
447,
473,
464,
455,
450,
448,
428,
451,
412,
463,
437,
434,
415,
444,
417,
405,
413,
410,
444,
441,
431,
463,
472,
428,
450,
416,
405,
439,
439,
423,
406,
431,
409,
414,
438,
405,
454,
389,
418,
433,
440,
414,
391,
400,
408,
402,
386,
387,
379,
395,
370,
393,
400,
357,
358,
370,
366,
400,
366,
334,
374,
366,
340,
337,
360,
384,
379,
366,
306,
363,
378,
362,
329,
353,
362,
348,
377,
341,
341,
305,
341,
327,
335,
303,
336,
342,
352,
322,
318,
341,
314,
304,
315,
310,
346,
305,
315,
356,
302,
288,
315,
325,
330,
284,
307,
323,
302,
279,
344,
277,
313,
303,
316,
279,
295,
282,
314,
313,
271,
303,
286,
310,
262,
257,
281,
281,
297,
292,
260,
259,
301,
282,
274,
286,
271,
219,
230,
221,
280,
275,
253,
263,
241,
250,
265,
242,
252,
254,
245,
233,
248,
224,
250,
250,
239,
243,
221,
208,
236,
234,
220,
215,
216,
195,
211,
203,
207,
185,
207,
214,
250,
204,
219,
239,
217,
212,
202,
212,
203,
204,
185,
204,
186,
194,
169,
199,
207,
205,
171,
174,
182,
170,
195,
219,
191,
189,
168,
171,
168,
182,
186,
186,
184,
176,
149,
172,
160,
192,
163,
169,
171,
151,
176,
152,
159,
151,
160,
136,
169,
156,
171,
126,
161,
136,
162,
149,
154,
157,
151,
137,
172,
144,
154,
148,
150,
140,
145,
135,
118,
123,
140,
121,
123,
118,
126,
143,
125,
94,
117,
140,
124,
131,
124,
108,
106,
93,
109,
112,
122,
112,
102,
101,
112,
126,
122,
105,
90,
97,
88,
87,
121,
87,
91,
107,
100,
89,
86,
94,
113,
95,
93,
85,
93,
87,
84,
100,
94,
105,
83,
96,
84,
88,
79,
72,
95,
81,
75,
81,
84,
69,
93,
81,
67,
74,
69,
68,
86,
73,
64,
74,
43,
68,
85,
68,
61,
68,
59,
67,
59,
52,
64,
65,
56,
64,
61,
68,
59,
49,
53,
59,
54,
61,
59,
46,
55,
44,
37,
60,
48,
48,
44,
45,
37,
44,
31,
48,
37,
51,
41,
46,
48,
43,
34,
39,
44,
43,
41,
41,
31,
38,
37,
36,
40,
37,
29,
24,
30,
43,
27,
24,
15,
26,
32,
26,
24,
27,
33,
23,
32,
19,
18,
24,
34,
18,
15,
21,
23,
13,
14,
23,
21,
21,
20,
17,
23,
16,
14,
6,
16,
14,
18,
19,
17,
23,
10,
13,
12,
15,
12,
5,
9,
10,
3,
6,
10,
8,
8,
2,
0,
5,
8,
4,
1,
0,
0,
1,
2,
0,
3,
4,
1,
0,
0,
0,
3,
0,
0,
0,
0,
0,
2,
0,
0,
0,
2,
0,
0,
0,
0,
0,
0,
0,
1,
0,
0,
0,
0,
0,
0,
0,
2,
0,
0,
0,
0,
1,
0,
0,
0,
0,
1,
1,
2,
2,
1,
0,
0,
0,
0,
0,
0,
0,
0,
0,
0,
0,
0,
0,
0,
0,
0,
0,
0,
1,
0,
1,
0,
0,
0,
1,
1,
0,
0,
3,
2,
0,
0,
0,
2,
0,
0,
0,
0,
0,
0,
0,
0,
0,
0,
0,
0,
0,
1,
0,
0,
0,
0,
0,
0,
0,
1,
0,
0,
0,
0,
0,
0,
0,
0,
0,
0,
0,
0,
0,
0,
0,
0,
0,
0,
2,
0,
0,
0,
0,
0,
0,
0,
0,
0,
1,
0,
0,
0,
0,
0,
0,
0,
1,
0,
0,
0,
0,
0,
1,
0,
0,
0,
0,
0,
0,
0,
0,
0,
0,
0,
0,
0,
0,
0,
1,
0,
0,
0,
0,
0,
2,
0,
1,
0,
0,
0,
0,
0,
0,
0,
0,
0,
0,
0,
0,
0,
0,
1,
0,
0,
0,
0,
0,
0,
0,
1,
2,
0,
1,
0,
0,
0,
1,
0,
0,
0,
0,
0,
0,
1,
0,
0,
0,
0,
0,
0,
0,
0,
0,
0,
0,
0,
0,
0,
0,
0,
0,
0,
0,
0,
0,
1,
0,
0,
0,
0,
1,
0,
0,
0,
0,
0,
0,
0,
0,
0,
0,
0,
0,
0,
0,
0,
1,
0,
0,
1,
0,
0,
0,
0,
0,
0,
0,
0,
0,
0,
0,
0,
0,
0,
0,
0,
0,
0,
0,
0,
0,
0,
0,
0,
0,
0,
0,
0,
0,
0,
0,
0,
0,
0,
1,
0,
0,
1,
1,
0,
0,
0,
0,
0,
0,
0,
1,
0,
1,
0,
2,
0,
0,
0,
0,
1,
0,
0,
1,
0,
1,
2,
0,
0,
1,
0,
1,
1,
0,
0,
0,
0,
0,
0,
0,
0,
#ENDOFDATA   :