File: NeXLSpectrum/Pyrite fragments/Pyrite_1_D2_15kV10nA130kHz_116kHz_100s.msa
#FORMAT      : EMSA/MAS Spectral Data File
#VERSION     : 1.0
#TITLE       : Bruker Nano spectrum Acquisition
#DATE        : 23-AUG-2019
#TIME        : 10:58
#OWNER       : Bruker Nano
#NPOINTS     : 4096
#NCOLUMNS    : 1
#XUNITS      : eV
#YUNITS      : counts
#DATATYPE    : Y
#XPERCHAN    : 5.00257
#OFFSET      : -482.8305
#BEAMKV      : 15
#SIGNALTYPE  : EDS
#ELEVANGLE   : 40
#AZIMANGLE   : 45
#LIVETIME    : 100
#REALTIME    : 127.721
#PROBECUR    : 10
#TAUWIND     : 0
#TDEADLYR    : 0
#TACTLYR     : 0.045
#TALWIND     : 0.004
#CHOFFSET    : 0.0
#XLABEL      : Energy (eV)
#YLABEL      : Counts
#EDSDET      : SDUTW
##DET_HASH   : c6370f9e-cc72-7559-f57e-203d75c8942b
##CALIB_HASH : fcf71094-1a10-2882-685e-00197fff5925
##SAMPLE     : <BulkSample id="1">\n<mOrientation id="2">\n<double>0.0</double>\n<double>0.0</double>\n<double>-1.0</double>\n</mOrientation>\n</BulkSample>
#SPECTRUM    :
0,
0,
0,
0,
0,
0,
0,
0,
0,
0,
0,
0,
0,
0,
0,
0,
0,
0,
1,
15,
22,
35,
29,
39,
28,
36,
46,
268,
3086,
22971,
94804,
210890,
255084,
168523,
61367,
12323,
1589,
248,
116,
0,
390,
3182,
3487,
2911,
1828,
1166,
1159,
1984,
3962,
7411,
10200,
9734,
6363,
2928,
1374,
1054,
1152,
1377,
1474,
1494,
1489,
1511,
1829,
2154,
2991,
4154,
5476,
5798,
5400,
4878,
5787,
7979,
10770,
12759,
12724,
12942,
17831,
30559,
45958,
53948,
47493,
32068,
17042,
8546,
5235,
4276,
3876,
3640,
3443,
3425,
3365,
3312,
3285,
3340,
3414,
3385,
3496,
3495,
3496,
3540,
3599,
3713,
3697,
3730,
3815,
3855,
3923,
3774,
3991,
4068,
4019,
4141,
4189,
4179,
4320,
4306,
4319,
4292,
4327,
4339,
4405,
4338,
4391,
4429,
4497,
4489,
4422,
4515,
4548,
4579,
4581,
4576,
4570,
4580,
4508,
4378,
4474,
4252,
4213,
4314,
4242,
4210,
4204,
4137,
4292,
4277,
4378,
4353,
4396,
4505,
4414,
4455,
4352,
4263,
4216,
4208,
4153,
4036,
4166,
4205,
4294,
4199,
4232,
4350,
4319,
4391,
4459,
4555,
4415,
4377,
4337,
4398,
4373,
4373,
4290,
4231,
4478,
5107,
6522,
10528,
19611,
39546,
75056,
127329,
189912,
242583,
265700,
246897,
196079,
133197,
78730,
42568,
23532,
17104,
16917,
19171,
21037,
20808,
18451,
14229,
10237,
7082,
4897,
3639,
3010,
2658,
2537,
2457,
2481,
2436,
2346,
2439,
2385,
2361,
2406,
2402,
2301,
2292,
2286,
2318,
2334,
2265,
2287,
2238,
2299,
2239,
2233,
2282,
2259,
2248,
2301,
2226,
2204,
2243,
2211,
2204,
2146,
2175,
2191,
2153,
2181,
2216,
2170,
2093,
2144,
2132,
2076,
2055,
2132,
2134,
2134,
2022,
2059,
1939,
2033,
1989,
2049,
2049,
2000,
1974,
1911,
2025,
1996,
1951,
1903,
1960,
2019,
2008,
1908,
1936,
1901,
1847,
1890,
1914,
1872,
1841,
1918,
1827,
1823,
1831,
1861,
1845,
1833,
1785,
1794,
1778,
1825,
1758,
1716,
1753,
1710,
1733,
1734,
1721,
1719,
1687,
1696,
1632,
1710,
1710,
1634,
1663,
1658,
1605,
1611,
1612,
1601,
1575,
1637,
1579,
1631,
1609,
1566,
1612,
1569,
1581,
1540,
1540,
1518,
1516,
1523,
1552,
1523,
1496,
1517,
1515,
1519,
1468,
1471,
1484,
1465,
1424,
1463,
1409,
1421,
1407,
1378,
1370,
1360,
1307,
1271,
1261,
1269,
1246,
1255,
1331,
1280,
1306,
1303,
1320,
1329,
1316,
1307,
1295,
1294,
1305,
1315,
1299,
1313,
1267,
1258,
1348,
1278,
1282,
1304,
1265,
1267,
1308,
1285,
1199,
1240,
1276,
1193,
1251,
1216,
1221,
1241,
1198,
1227,
1233,
1195,
1193,
1123,
1175,
1138,
1192,
1186,
1135,
1133,
1156,
1127,
1191,
1169,
1123,
1156,
1110,
1121,
1109,
1148,
1108,
1134,
1122,
1052,
1091,
1050,
1022,
1095,
1066,
1092,
1048,
1063,
1035,
1071,
1066,
1009,
1050,
1001,
992,
1053,
1045,
1024,
1009,
1017,
1004,
1005,
991,
991,
990,
1005,
985,
971,
961,
1017,
986,
976,
974,
1059,
954,
956,
1061,
975,
1013,
971,
1032,
1049,
1029,
1159,
1334,
1660,
2290,
3392,
5065,
7993,
11793,
16671,
21822,
27535,
31786,
34335,
35059,
32582,
29336,
24116,
18476,
13416,
9316,
5923,
3927,
2482,
1720,
1308,
1082,
919,
887,
915,
832,
880,
881,
839,
822,
887,
837,
790,
769,
818,
806,
871,
783,
837,
892,
906,
978,
1014,
1121,
1260,
1608,
2006,
2503,
3132,
3736,
4385,
4713,
4974,
4934,
4723,
4141,
3519,
2832,
2268,
1799,
1434,
1103,
931,
804,
730,
666,
642,
662,
655,
638,
621,
659,
596,
635,
631,
667,
640,
591,
677,
644,
732,
632,
667,
646,
628,
614,
593,
614,
572,
603,
551,
575,
545,
529,
577,
519,
563,
553,
572,
559,
566,
619,
624,
577,
583,
560,
567,
564,
560,
555,
518,
535,
528,
494,
577,
593,
546,
553,
536,
506,
551,
557,
530,
507,
527,
527,
522,
526,
544,
500,
534,
484,
531,
511,
499,
506,
484,
496,
486,
534,
496,
478,
530,
520,
487,
471,
492,
473,
450,
483,
506,
446,
449,
436,
470,
448,
454,
433,
442,
445,
451,
419,
447,
442,
417,
454,
421,
433,
425,
417,
417,
455,
426,
432,
405,
430,
454,
414,
408,
414,
456,
400,
403,
400,
395,
387,
461,
428,
369,
440,
390,
402,
395,
403,
414,
356,
437,
358,
350,
358,
352,
348,
361,
374,
352,
380,
355,
360,
365,
378,
359,
374,
363,
373,
375,
371,
348,
319,
362,
364,
348,
352,
338,
339,
391,
347,
343,
322,
299,
358,
329,
318,
346,
340,
336,
321,
364,
363,
332,
337,
300,
331,
325,
313,
326,
284,
325,
323,
305,
339,
321,
293,
308,
294,
293,
284,
362,
315,
278,
295,
295,
305,
270,
286,
297,
296,
301,
277,
251,
296,
298,
272,
227,
278,
275,
247,
312,
279,
264,
281,
291,
265,
275,
261,
231,
262,
228,
256,
261,
239,
259,
227,
252,
231,
281,
265,
249,
252,
248,
256,
286,
237,
230,
226,
249,
211,
217,
204,
202,
225,
271,
216,
216,
229,
223,
218,
209,
214,
202,
198,
182,
229,
218,
219,
191,
195,
187,
191,
190,
199,
223,
198,
203,
186,
188,
227,
195,
183,
207,
185,
190,
185,
178,
194,
173,
198,
179,
190,
202,
171,
214,
175,
194,
190,
168,
209,
193,
167,
185,
187,
179,
165,
158,
155,
168,
175,
165,
154,
186,
154,
183,
165,
158,
145,
154,
148,
160,
161,
153,
145,
156,
144,
173,
123,
128,
136,
128,
151,
149,
143,
134,
121,
131,
113,
155,
135,
121,
122,
122,
137,
121,
136,
100,
122,
99,
106,
118,
108,
117,
123,
132,
140,
109,
103,
125,
92,
117,
123,
93,
108,
131,
111,
110,
105,
105,
98,
89,
110,
93,
92,
89,
93,
105,
96,
88,
88,
90,
99,
92,
89,
97,
96,
97,
87,
88,
87,
84,
82,
86,
85,
84,
72,
75,
97,
62,
93,
90,
87,
65,
81,
80,
82,
56,
52,
65,
74,
62,
47,
57,
73,
56,
64,
52,
75,
52,
58,
53,
62,
48,
68,
66,
57,
66,
45,
58,
60,
57,
63,
53,
55,
50,
65,
51,
54,
43,
66,
55,
43,
52,
55,
43,
50,
48,
53,
39,
54,
43,
32,
55,
47,
54,
34,
42,
50,
50,
56,
37,
31,
40,
33,
26,
39,
20,
33,
32,
22,
26,
22,
25,
35,
26,
21,
37,
24,
22,
17,
30,
17,
30,
16,
17,
37,
19,
29,
12,
22,
20,
13,
19,
13,
15,
18,
18,
13,
21,
19,
9,
18,
16,
12,
21,
13,
10,
14,
13,
7,
5,
4,
8,
9,
6,
11,
8,
6,
7,
6,
2,
12,
4,
2,
6,
3,
2,
4,
2,
0,
2,
0,
3,
0,
3,
0,
0,
1,
0,
0,
0,
0,
0,
0,
1,
0,
0,
0,
0,
1,
0,
0,
0,
0,
0,
0,
0,
0,
0,
0,
0,
2,
2,
0,
0,
0,
0,
0,
0,
0,
0,
0,
0,
0,
0,
0,
0,
0,
0,
0,
0,
1,
1,
0,
0,
0,
2,
1,
1,
0,
1,
0,
0,
0,
0,
0,
0,
0,
0,
1,
0,
0,
0,
0,
0,
2,
0,
0,
0,
0,
0,
0,
0,
0,
0,
0,
0,
0,
0,
0,
0,
0,
0,
0,
0,
0,
1,
0,
0,
0,
0,
0,
0,
0,
0,
0,
2,
0,
1,
0,
0,
0,
0,
0,
0,
0,
0,
0,
1,
0,
0,
0,
0,
0,
1,
0,
0,
0,
0,
0,
0,
0,
1,
0,
0,
0,
0,
0,
0,
1,
0,
0,
1,
0,
1,
0,
0,
0,
1,
0,
0,
0,
0,
0,
0,
0,
0,
0,
1,
0,
0,
1,
0,
0,
0,
0,
0,
0,
0,
0,
0,
0,
0,
0,
1,
0,
0,
0,
0,
0,
0,
0,
0,
1,
0,
0,
0,
0,
0,
3,
0,
0,
0,
0,
0,
0,
0,
0,
0,
2,
0,
1,
0,
0,
1,
0,
0,
0,
0,
0,
0,
0,
0,
0,
0,
0,
0,
0,
0,
0,
0,
0,
0,
0,
0,
0,
0,
2,
0,
0,
0,
1,
0,
0,
0,
0,
0,
0,
0,
0,
0,
0,
0,
0,
0,
0,
0,
0,
1,
0,
0,
0,
0,
0,
0,
0,
0,
0,
0,
1,
0,
0,
0,
0,
0,
1,
0,
1,
0,
0,
0,
0,
0,
1,
0,
0,
0,
0,
0,
0,
0,
0,
0,
0,
0,
0,
0,
0,
0,
0,
0,
0,
0,
0,
0,
0,
0,
1,
0,
0,
0,
0,
0,
0,
0,
1,
0,
1,
0,
0,
0,
0,
0,
0,
0,
0,
0,
0,
0,
0,
0,
0,
0,
0,
0,
0,
0,
0,
0,
0,
#ENDOFDATA   :