File: NeXLSpectrum/Pyrite fragments/Pyrite_1_A1_15kV10nA130kHz_8kHz_100s.msa
#FORMAT      : EMSA/MAS Spectral Data File
#VERSION     : 1.0
#TITLE       : Bruker Nano spectrum Acquisition
#DATE        : 23-AUG-2019
#TIME        : 10:30
#OWNER       : Bruker Nano
#NPOINTS     : 4096
#NCOLUMNS    : 1
#XUNITS      : eV
#YUNITS      : counts
#DATATYPE    : Y
#XPERCHAN    : 5.00257
#OFFSET      : -482.8305
#BEAMKV      : 15
#SIGNALTYPE  : EDS
#ELEVANGLE   : 40
#AZIMANGLE   : 45
#LIVETIME    : 100
#REALTIME    : 101.269
#PROBECUR    : 10
#TAUWIND     : 0
#TDEADLYR    : 0
#TACTLYR     : 0.045
#TALWIND     : 0.004
#CHOFFSET    : 0.0
#XLABEL      : Energy (eV)
#YLABEL      : Counts
#EDSDET      : SDUTW
##DET_HASH   : c6370f9e-cc72-7559-f57e-203d75c8942b
##CALIB_HASH : fcf71094-1a10-2882-685e-00197fff5925
##SAMPLE     : <BulkSample id="1">\n<mOrientation id="2">\n<double>0.0</double>\n<double>0.0</double>\n<double>-1.0</double>\n</mOrientation>\n</BulkSample>
#SPECTRUM    :
0,
0,
0,
0,
0,
0,
0,
0,
0,
0,
0,
0,
0,
0,
0,
0,
0,
0,
0,
0,
0,
0,
1,
0,
0,
0,
0,
19,
171,
1395,
6173,
13994,
17307,
11430,
4137,
752,
91,
14,
2,
0,
0,
93,
130,
143,
188,
404,
1304,
4666,
14332,
30975,
45715,
44377,
27920,
11361,
3003,
555,
152,
130,
122,
129,
119,
121,
151,
228,
449,
744,
1172,
1309,
1043,
663,
382,
226,
276,
308,
311,
347,
384,
586,
877,
1046,
938,
632,
392,
323,
262,
264,
261,
333,
348,
344,
347,
303,
308,
264,
265,
250,
260,
292,
251,
272,
245,
295,
254,
284,
274,
264,
268,
287,
262,
261,
304,
280,
275,
275,
300,
285,
299,
270,
266,
286,
268,
276,
274,
252,
268,
277,
270,
275,
274,
272,
256,
251,
273,
228,
258,
232,
266,
236,
250,
231,
236,
234,
233,
212,
235,
253,
237,
256,
230,
262,
268,
246,
242,
263,
219,
224,
199,
206,
206,
177,
183,
193,
211,
218,
214,
206,
216,
203,
213,
192,
193,
182,
202,
171,
190,
194,
216,
203,
208,
262,
364,
642,
1144,
1847,
2585,
3285,
3515,
3448,
2660,
1812,
1136,
658,
395,
321,
314,
366,
373,
376,
355,
294,
269,
203,
186,
156,
158,
166,
144,
145,
148,
142,
131,
124,
138,
131,
134,
127,
132,
124,
125,
136,
121,
121,
132,
111,
143,
119,
122,
115,
119,
116,
100,
115,
115,
110,
120,
117,
128,
97,
91,
118,
124,
100,
124,
118,
99,
98,
98,
100,
112,
107,
108,
102,
106,
101,
98,
103,
102,
90,
88,
110,
72,
95,
107,
107,
84,
101,
90,
101,
93,
93,
89,
87,
91,
93,
96,
108,
105,
131,
116,
119,
120,
102,
106,
79,
103,
83,
92,
89,
91,
78,
81,
77,
83,
70,
74,
79,
85,
84,
77,
80,
78,
77,
77,
68,
74,
72,
71,
82,
71,
81,
72,
78,
82,
80,
58,
65,
64,
67,
55,
68,
69,
76,
67,
66,
67,
66,
56,
64,
63,
58,
65,
58,
68,
55,
78,
64,
55,
61,
53,
55,
55,
55,
58,
58,
44,
58,
60,
65,
73,
53,
60,
57,
49,
60,
50,
44,
64,
47,
58,
58,
58,
36,
44,
55,
56,
53,
51,
50,
48,
55,
42,
51,
67,
55,
42,
61,
47,
61,
69,
42,
56,
46,
51,
50,
48,
45,
58,
30,
59,
51,
50,
41,
51,
49,
41,
56,
48,
42,
48,
40,
39,
42,
45,
49,
39,
52,
57,
37,
48,
48,
55,
31,
45,
38,
48,
45,
46,
41,
40,
45,
40,
40,
45,
45,
39,
42,
33,
37,
35,
33,
28,
41,
42,
50,
39,
40,
46,
44,
50,
33,
36,
48,
39,
37,
38,
49,
42,
62,
51,
58,
96,
127,
166,
206,
311,
320,
452,
565,
539,
549,
530,
451,
395,
301,
223,
156,
124,
86,
60,
44,
37,
38,
33,
33,
39,
31,
37,
41,
27,
34,
43,
39,
34,
39,
22,
36,
31,
36,
32,
42,
52,
47,
26,
36,
44,
59,
61,
57,
75,
100,
82,
101,
121,
114,
107,
92,
86,
78,
52,
46,
28,
40,
27,
32,
31,
31,
25,
22,
26,
23,
30,
15,
19,
23,
30,
24,
20,
31,
46,
25,
50,
37,
32,
33,
28,
28,
33,
29,
18,
18,
28,
20,
24,
16,
26,
22,
25,
27,
24,
23,
19,
17,
17,
27,
12,
23,
22,
17,
16,
17,
20,
12,
24,
19,
21,
26,
18,
20,
24,
25,
18,
27,
19,
24,
20,
18,
18,
18,
18,
20,
19,
25,
20,
17,
13,
18,
11,
21,
18,
16,
14,
18,
13,
22,
16,
15,
18,
13,
20,
15,
16,
23,
15,
18,
14,
20,
19,
29,
10,
18,
16,
14,
12,
18,
15,
25,
15,
21,
18,
12,
18,
9,
17,
22,
19,
10,
16,
12,
13,
12,
19,
11,
22,
14,
11,
16,
16,
8,
12,
13,
12,
16,
11,
15,
8,
14,
16,
11,
6,
18,
9,
15,
17,
13,
17,
11,
15,
10,
10,
22,
16,
14,
7,
18,
12,
9,
8,
17,
7,
14,
14,
14,
12,
13,
17,
6,
18,
12,
15,
13,
9,
12,
10,
10,
11,
11,
12,
15,
9,
11,
9,
15,
15,
12,
8,
8,
13,
9,
9,
11,
14,
11,
9,
11,
5,
13,
12,
11,
6,
14,
8,
12,
11,
12,
10,
9,
6,
5,
12,
13,
10,
7,
10,
9,
6,
10,
9,
7,
5,
13,
8,
12,
10,
17,
9,
11,
11,
10,
9,
8,
9,
19,
7,
7,
9,
10,
10,
7,
12,
10,
6,
11,
8,
6,
10,
8,
6,
14,
10,
10,
4,
10,
10,
7,
10,
12,
13,
4,
3,
11,
15,
8,
5,
9,
9,
6,
11,
6,
12,
6,
9,
5,
10,
13,
5,
7,
9,
4,
7,
6,
7,
9,
12,
7,
6,
14,
10,
5,
8,
7,
13,
12,
8,
11,
9,
6,
5,
1,
5,
3,
8,
6,
8,
9,
7,
3,
13,
3,
5,
12,
5,
9,
13,
9,
8,
5,
9,
8,
4,
11,
6,
9,
6,
12,
15,
9,
7,
8,
6,
5,
8,
10,
6,
3,
4,
5,
5,
6,
7,
8,
6,
10,
2,
7,
9,
6,
7,
7,
8,
5,
5,
9,
8,
6,
5,
9,
10,
5,
9,
8,
6,
7,
0,
6,
5,
5,
11,
4,
8,
12,
3,
7,
6,
2,
8,
6,
8,
6,
3,
7,
7,
6,
7,
5,
6,
4,
5,
5,
7,
10,
3,
7,
6,
6,
2,
5,
7,
5,
6,
7,
7,
6,
2,
1,
4,
11,
5,
6,
1,
3,
5,
3,
4,
7,
4,
3,
6,
0,
5,
3,
7,
3,
8,
3,
6,
6,
6,
13,
6,
7,
3,
5,
5,
4,
7,
3,
2,
7,
6,
3,
5,
1,
4,
4,
5,
4,
4,
9,
3,
4,
6,
2,
2,
4,
4,
7,
2,
5,
3,
4,
4,
1,
5,
7,
2,
4,
1,
4,
1,
6,
4,
4,
2,
4,
4,
1,
4,
0,
2,
1,
2,
1,
6,
0,
1,
3,
4,
3,
0,
2,
1,
3,
2,
2,
3,
1,
2,
2,
1,
2,
0,
1,
1,
2,
1,
2,
1,
2,
1,
1,
0,
0,
1,
0,
3,
1,
0,
1,
0,
0,
0,
0,
0,
0,
0,
0,
1,
0,
0,
0,
0,
0,
0,
0,
0,
0,
0,
0,
0,
0,
0,
0,
0,
0,
0,
0,
0,
0,
0,
0,
0,
0,
0,
0,
0,
0,
0,
0,
0,
0,
0,
0,
0,
0,
0,
0,
0,
0,
0,
0,
0,
0,
0,
0,
0,
0,
0,
0,
0,
0,
0,
0,
0,
0,
0,
0,
0,
0,
0,
0,
0,
0,
0,
0,
0,
0,
0,
0,
0,
0,
0,
0,
0,
0,
0,
0,
0,
0,
0,
0,
0,
0,
0,
0,
0,
0,
0,
0,
0,
0,
0,
0,
0,
0,
0,
0,
0,
0,
0,
0,
0,
0,
0,
0,
0,
0,
0,
0,
0,
0,
0,
0,
0,
0,
0,
0,
0,
0,
0,
0,
0,
0,
0,
0,
0,
0,
0,
0,
0,
0,
0,
0,
0,
0,
0,
0,
0,
0,
0,
0,
0,
0,
0,
0,
0,
0,
0,
0,
0,
0,
0,
0,
0,
0,
0,
0,
0,
0,
0,
0,
0,
0,
0,
0,
0,
0,
0,
0,
0,
0,
0,
0,
0,
0,
0,
0,
0,
0,
0,
0,
0,
0,
0,
0,
0,
0,
0,
0,
0,
0,
0,
0,
0,
0,
0,
0,
0,
0,
0,
0,
0,
0,
0,
0,
0,
0,
0,
0,
0,
0,
0,
0,
0,
0,
0,
0,
0,
0,
0,
0,
0,
0,
0,
0,
0,
0,
0,
0,
0,
0,
0,
0,
0,
0,
0,
0,
0,
0,
0,
0,
0,
0,
0,
0,
0,
0,
0,
0,
0,
0,
0,
0,
0,
0,
0,
0,
0,
0,
0,
0,
0,
0,
0,
0,
0,
0,
0,
0,
0,
0,
0,
0,
0,
0,
0,
0,
0,
0,
0,
0,
0,
0,
0,
0,
0,
0,
0,
0,
0,
0,
0,
0,
0,
0,
0,
0,
0,
0,
0,
0,
0,
0,
0,
0,
0,
0,
0,
0,
0,
0,
0,
0,
0,
0,
0,
0,
0,
0,
0,
0,
0,
0,
0,
0,
0,
0,
#ENDOFDATA   :