File: NeXLSpectrum/Pyrite fragments/Pyrite_1_H1_15kV10nA130kHz_39kHz_100s.msa
#FORMAT      : EMSA/MAS Spectral Data File
#VERSION     : 1.0
#TITLE       : Bruker Nano spectrum Acquisition
#DATE        : 23-AUG-2019
#TIME        : 00:12
#OWNER       : Bruker Nano
#NPOINTS     : 4096
#NCOLUMNS    : 1
#XUNITS      : eV
#YUNITS      : counts
#DATATYPE    : Y
#XPERCHAN    : 5.00257
#OFFSET      : -482.8305
#BEAMKV      : 15
#SIGNALTYPE  : EDS
#ELEVANGLE   : 40
#AZIMANGLE   : 45
#LIVETIME    : 100
#REALTIME    : 107.765
#PROBECUR    : 10
#TAUWIND     : 0
#TDEADLYR    : 0
#TACTLYR     : 0.045
#TALWIND     : 0.004
#CHOFFSET    : 0.0
#XLABEL      : Energy (eV)
#YLABEL      : Counts
#EDSDET      : SDUTW
##DET_HASH   : c6370f9e-cc72-7559-f57e-203d75c8942b
##CALIB_HASH : fcf71094-1a10-2882-685e-00197fff5925
##SAMPLE     : <BulkSample id="1">\n<mOrientation id="2">\n<double>0.0</double>\n<double>0.0</double>\n<double>-1.0</double>\n</mOrientation>\n</BulkSample>
#SPECTRUM    :
0,
0,
0,
0,
0,
0,
0,
0,
0,
0,
0,
0,
0,
0,
0,
0,
0,
0,
0,
5,
2,
7,
8,
8,
6,
4,
6,
82,
997,
7554,
30739,
70261,
85986,
56556,
20006,
4017,
421,
34,
0,
0,
15,
273,
267,
255,
202,
148,
212,
392,
958,
1909,
2785,
2721,
1727,
755,
286,
206,
255,
358,
372,
401,
270,
255,
312,
474,
997,
1989,
3021,
3450,
2826,
1838,
1128,
855,
957,
1004,
1096,
1171,
1516,
2529,
3852,
4426,
4020,
2743,
1494,
775,
505,
394,
427,
406,
421,
391,
374,
397,
392,
391,
404,
430,
407,
367,
409,
425,
408,
397,
411,
444,
443,
460,
456,
439,
465,
472,
455,
462,
526,
482,
507,
490,
536,
535,
608,
526,
565,
545,
600,
569,
573,
595,
643,
591,
647,
696,
657,
666,
679,
697,
658,
660,
676,
672,
617,
675,
677,
666,
675,
695,
737,
727,
760,
816,
802,
741,
784,
765,
782,
783,
820,
805,
799,
833,
878,
840,
835,
869,
871,
959,
916,
980,
1012,
1055,
1055,
994,
1045,
1011,
1015,
1016,
1046,
1088,
1172,
1318,
1758,
2883,
5782,
11540,
22151,
37914,
56659,
72136,
78921,
73411,
58677,
39904,
23688,
12525,
6904,
5114,
5227,
5825,
6287,
6066,
5267,
3946,
2698,
1699,
1013,
720,
562,
446,
451,
439,
431,
405,
443,
457,
417,
433,
448,
424,
451,
417,
477,
486,
467,
461,
474,
460,
476,
474,
464,
488,
501,
476,
498,
492,
505,
519,
502,
492,
519,
516,
505,
492,
499,
508,
537,
567,
505,
511,
505,
533,
516,
557,
533,
520,
552,
574,
570,
573,
567,
542,
541,
541,
613,
554,
554,
553,
557,
574,
614,
588,
565,
610,
599,
620,
608,
590,
602,
614,
595,
588,
619,
638,
601,
635,
620,
605,
628,
628,
620,
637,
630,
615,
628,
675,
629,
639,
607,
614,
618,
664,
630,
643,
606,
646,
664,
617,
646,
648,
703,
642,
640,
652,
636,
657,
681,
674,
679,
697,
644,
680,
674,
666,
703,
686,
674,
675,
670,
660,
685,
675,
693,
686,
705,
699,
657,
709,
668,
688,
714,
692,
655,
658,
628,
642,
622,
643,
639,
672,
663,
700,
669,
675,
680,
681,
709,
731,
718,
744,
733,
673,
707,
717,
713,
703,
674,
684,
664,
689,
733,
695,
720,
783,
713,
744,
729,
721,
673,
679,
724,
693,
732,
695,
666,
690,
671,
691,
703,
683,
754,
684,
679,
693,
709,
721,
705,
690,
733,
754,
724,
652,
710,
747,
680,
688,
699,
703,
725,
667,
665,
637,
666,
693,
671,
661,
703,
702,
725,
694,
690,
641,
701,
666,
678,
674,
675,
692,
734,
675,
713,
681,
688,
714,
666,
700,
714,
691,
681,
644,
715,
709,
705,
672,
712,
700,
688,
697,
776,
795,
810,
996,
1207,
1655,
2518,
3947,
5931,
8990,
12736,
16612,
20600,
24191,
26221,
26979,
25324,
22163,
18404,
14101,
10082,
7027,
4571,
2931,
1889,
1225,
1021,
805,
744,
706,
696,
654,
619,
638,
633,
629,
660,
666,
658,
651,
654,
661,
670,
680,
683,
658,
729,
782,
828,
910,
1072,
1277,
1570,
2061,
2657,
3123,
3567,
3911,
4025,
3977,
3735,
3382,
2815,
2220,
1723,
1270,
983,
682,
585,
466,
418,
372,
352,
351,
322,
341,
353,
364,
352,
332,
319,
332,
341,
347,
341,
381,
388,
327,
340,
356,
348,
354,
328,
364,
395,
337,
355,
348,
388,
342,
311,
371,
376,
347,
331,
380,
353,
375,
365,
349,
388,
358,
369,
352,
354,
360,
368,
351,
347,
371,
343,
334,
357,
363,
357,
325,
329,
347,
337,
326,
336,
384,
336,
304,
342,
333,
350,
356,
375,
326,
332,
327,
363,
298,
320,
298,
344,
322,
322,
321,
354,
348,
369,
328,
320,
322,
317,
319,
314,
311,
317,
309,
319,
314,
334,
325,
311,
321,
320,
313,
315,
325,
317,
305,
322,
315,
329,
312,
300,
286,
307,
321,
290,
311,
312,
313,
304,
308,
321,
297,
308,
310,
314,
299,
308,
306,
302,
292,
296,
288,
296,
296,
291,
296,
294,
285,
259,
298,
330,
301,
271,
268,
272,
283,
315,
286,
286,
278,
286,
279,
317,
274,
295,
277,
288,
286,
297,
284,
278,
316,
261,
276,
268,
258,
269,
245,
259,
300,
264,
258,
263,
273,
304,
277,
249,
262,
238,
248,
258,
253,
261,
255,
265,
236,
273,
244,
283,
228,
258,
252,
261,
239,
217,
229,
232,
235,
265,
216,
220,
256,
238,
237,
230,
245,
251,
210,
217,
237,
241,
250,
239,
209,
227,
215,
209,
205,
228,
264,
228,
213,
270,
232,
187,
207,
190,
215,
240,
220,
213,
206,
245,
224,
222,
193,
201,
217,
193,
213,
197,
229,
191,
205,
222,
196,
249,
205,
211,
223,
184,
203,
188,
170,
190,
216,
171,
189,
198,
184,
193,
204,
219,
198,
179,
190,
210,
170,
154,
178,
187,
183,
160,
163,
191,
211,
166,
176,
159,
166,
183,
172,
144,
179,
171,
162,
162,
129,
159,
156,
159,
151,
178,
187,
148,
134,
176,
157,
147,
137,
145,
135,
149,
168,
140,
143,
143,
141,
154,
137,
146,
154,
153,
155,
159,
147,
134,
139,
140,
137,
122,
143,
131,
133,
130,
153,
112,
139,
112,
135,
146,
128,
112,
103,
98,
101,
121,
108,
115,
110,
125,
108,
114,
105,
149,
128,
110,
116,
118,
119,
108,
76,
106,
92,
113,
109,
105,
111,
109,
109,
102,
93,
107,
109,
93,
104,
101,
111,
90,
99,
93,
80,
84,
100,
75,
95,
85,
83,
89,
90,
93,
86,
79,
60,
86,
81,
52,
76,
81,
60,
90,
65,
80,
75,
80,
62,
74,
75,
72,
65,
66,
64,
60,
71,
66,
67,
65,
62,
59,
67,
55,
59,
60,
66,
73,
60,
58,
64,
52,
50,
59,
47,
51,
49,
60,
54,
62,
51,
53,
57,
55,
38,
57,
56,
47,
40,
40,
51,
47,
36,
37,
49,
57,
36,
33,
43,
53,
40,
50,
33,
40,
43,
34,
39,
33,
52,
32,
29,
27,
26,
38,
36,
30,
27,
40,
33,
26,
16,
26,
27,
22,
18,
32,
23,
26,
17,
21,
17,
26,
18,
28,
18,
30,
23,
20,
12,
18,
17,
17,
13,
16,
10,
13,
22,
11,
17,
17,
16,
16,
12,
14,
14,
7,
15,
13,
12,
11,
9,
9,
5,
8,
9,
6,
6,
6,
5,
7,
4,
7,
5,
3,
2,
0,
3,
3,
0,
0,
0,
0,
0,
1,
0,
0,
0,
0,
0,
0,
2,
0,
1,
0,
0,
0,
0,
0,
1,
0,
0,
0,
0,
1,
0,
0,
2,
0,
0,
1,
0,
0,
1,
0,
0,
1,
0,
0,
0,
0,
1,
3,
0,
0,
0,
0,
0,
0,
1,
0,
0,
0,
0,
0,
0,
0,
0,
0,
0,
0,
0,
0,
0,
0,
0,
0,
0,
0,
0,
0,
0,
0,
0,
0,
0,
0,
0,
0,
0,
0,
1,
0,
0,
0,
0,
2,
0,
0,
0,
0,
0,
0,
0,
1,
0,
0,
0,
0,
0,
1,
0,
1,
0,
0,
0,
0,
0,
0,
0,
1,
0,
0,
0,
0,
0,
0,
0,
0,
0,
0,
0,
0,
1,
1,
0,
0,
0,
0,
0,
0,
0,
0,
0,
0,
0,
1,
0,
0,
0,
0,
0,
1,
0,
0,
0,
0,
0,
0,
0,
0,
0,
0,
0,
0,
0,
0,
0,
0,
0,
0,
0,
0,
0,
0,
0,
0,
0,
0,
0,
0,
0,
1,
0,
0,
0,
0,
0,
1,
1,
0,
0,
1,
1,
0,
1,
0,
1,
0,
1,
1,
0,
0,
1,
0,
0,
0,
0,
0,
0,
0,
1,
0,
0,
0,
1,
1,
0,
0,
0,
0,
0,
0,
0,
1,
0,
0,
0,
0,
1,
0,
0,
1,
0,
0,
0,
0,
0,
0,
0,
0,
0,
1,
0,
0,
0,
0,
0,
0,
0,
0,
1,
0,
0,
0,
0,
0,
0,
1,
0,
0,
1,
0,
0,
0,
0,
0,
0,
0,
0,
0,
0,
0,
1,
0,
0,
0,
0,
0,
0,
0,
0,
0,
0,
1,
1,
0,
0,
0,
0,
0,
0,
0,
0,
0,
0,
0,
1,
1,
1,
0,
0,
0,
0,
0,
0,
0,
0,
0,
0,
1,
0,
0,
0,
0,
0,
0,
0,
1,
0,
1,
1,
0,
0,
0,
0,
0,
0,
0,
0,
0,
0,
0,
1,
0,
0,
1,
0,
#ENDOFDATA   :