File: NeXLSpectrum/Pyrite fragments/Pyrite_1_J2_15kV10nA130kHz_28kHz_100s.msa
#FORMAT      : EMSA/MAS Spectral Data File
#VERSION     : 1.0
#TITLE       : Bruker Nano spectrum Acquisition
#DATE        : 23-AUG-2019
#TIME        : 00:37
#OWNER       : Bruker Nano
#NPOINTS     : 4096
#NCOLUMNS    : 1
#XUNITS      : eV
#YUNITS      : counts
#DATATYPE    : Y
#XPERCHAN    : 5.00257
#OFFSET      : -482.8305
#BEAMKV      : 15
#SIGNALTYPE  : EDS
#ELEVANGLE   : 40
#AZIMANGLE   : 45
#LIVETIME    : 100
#REALTIME    : 106.923
#PROBECUR    : 10
#TAUWIND     : 0
#TDEADLYR    : 0
#TACTLYR     : 0.045
#TALWIND     : 0.004
#CHOFFSET    : 0.0
#XLABEL      : Energy (eV)
#YLABEL      : Counts
#EDSDET      : SDUTW
##DET_HASH   : c6370f9e-cc72-7559-f57e-203d75c8942b
##CALIB_HASH : fcf71094-1a10-2882-685e-00197fff5925
##SAMPLE     : <BulkSample id="1">\n<mOrientation id="2">\n<double>0.0</double>\n<double>0.0</double>\n<double>-1.0</double>\n</mOrientation>\n</BulkSample>
#SPECTRUM    :
0,
0,
0,
0,
0,
0,
0,
0,
0,
0,
0,
0,
0,
0,
0,
0,
0,
0,
1,
4,
2,
4,
3,
5,
6,
7,
5,
73,
926,
6808,
28781,
65106,
79379,
51877,
18791,
3504,
406,
31,
6,
0,
12,
183,
168,
166,
122,
128,
167,
293,
706,
1404,
2043,
1920,
1263,
544,
221,
149,
181,
270,
301,
275,
228,
238,
276,
529,
1150,
2359,
3600,
4082,
3501,
2078,
1136,
678,
672,
818,
830,
767,
1187,
2118,
3200,
3774,
3450,
2313,
1221,
644,
438,
373,
304,
356,
344,
370,
344,
337,
341,
355,
394,
398,
424,
384,
377,
372,
368,
403,
362,
392,
377,
375,
411,
380,
393,
356,
413,
409,
409,
411,
436,
464,
477,
460,
468,
535,
510,
519,
500,
480,
508,
527,
562,
554,
529,
592,
601,
665,
607,
624,
643,
620,
620,
643,
604,
614,
566,
623,
652,
642,
694,
683,
726,
792,
734,
770,
780,
747,
738,
719,
752,
763,
809,
808,
804,
774,
806,
831,
831,
898,
891,
957,
937,
957,
984,
1010,
998,
1037,
983,
958,
991,
1040,
1083,
1332,
1738,
2821,
5585,
11367,
21508,
37227,
55219,
70542,
77411,
72091,
57460,
39237,
23044,
12352,
6764,
4811,
4900,
5676,
6143,
5922,
5066,
3910,
2566,
1558,
994,
648,
464,
423,
439,
393,
437,
406,
413,
395,
402,
413,
405,
435,
417,
414,
435,
428,
434,
433,
439,
458,
448,
437,
439,
441,
450,
447,
447,
466,
445,
460,
459,
477,
482,
479,
473,
499,
475,
509,
500,
490,
529,
520,
498,
513,
542,
516,
520,
559,
510,
535,
542,
549,
510,
542,
542,
539,
495,
523,
554,
487,
535,
515,
568,
527,
558,
539,
562,
557,
551,
585,
572,
559,
580,
559,
542,
566,
603,
586,
566,
603,
578,
624,
560,
537,
592,
598,
585,
598,
582,
559,
594,
560,
603,
594,
580,
577,
610,
595,
591,
594,
568,
597,
654,
589,
629,
615,
616,
633,
607,
603,
614,
577,
611,
566,
633,
598,
654,
608,
637,
600,
602,
628,
608,
585,
636,
642,
617,
600,
638,
605,
603,
634,
590,
619,
576,
575,
571,
575,
523,
573,
564,
550,
601,
583,
636,
629,
604,
601,
614,
638,
600,
623,
616,
614,
601,
611,
600,
613,
635,
623,
614,
635,
636,
608,
604,
627,
616,
624,
630,
631,
621,
573,
653,
619,
578,
580,
640,
597,
554,
597,
620,
619,
604,
577,
593,
605,
632,
632,
600,
547,
608,
602,
586,
599,
620,
624,
597,
615,
610,
583,
583,
569,
580,
599,
598,
598,
603,
612,
612,
586,
621,
612,
557,
598,
602,
592,
541,
596,
571,
571,
607,
587,
535,
590,
609,
541,
555,
561,
596,
589,
573,
607,
607,
623,
564,
584,
594,
626,
572,
626,
652,
656,
743,
828,
1019,
1423,
2197,
3370,
5207,
7860,
11056,
14845,
18256,
21235,
23237,
23612,
22400,
19625,
16380,
12417,
8895,
6219,
4096,
2574,
1593,
1177,
797,
749,
603,
589,
584,
572,
587,
593,
554,
528,
548,
565,
559,
574,
582,
573,
556,
607,
599,
627,
602,
654,
701,
765,
915,
1218,
1402,
1808,
2385,
2662,
3146,
3394,
3615,
3568,
3272,
2991,
2415,
1975,
1498,
1111,
869,
619,
496,
413,
376,
319,
332,
289,
278,
349,
312,
289,
309,
296,
297,
337,
302,
310,
323,
319,
351,
300,
331,
296,
288,
298,
275,
304,
282,
298,
330,
275,
320,
294,
303,
346,
300,
291,
297,
292,
318,
306,
338,
321,
302,
337,
323,
280,
296,
289,
322,
288,
296,
295,
316,
301,
280,
317,
282,
331,
309,
300,
304,
310,
326,
295,
312,
290,
286,
289,
275,
304,
285,
285,
297,
310,
283,
291,
276,
276,
300,
271,
284,
279,
294,
299,
284,
282,
278,
320,
273,
315,
272,
300,
281,
261,
267,
260,
260,
256,
274,
250,
264,
267,
267,
253,
268,
281,
262,
274,
277,
272,
274,
275,
264,
262,
259,
245,
235,
281,
251,
268,
256,
280,
255,
267,
265,
255,
254,
241,
253,
267,
226,
253,
253,
277,
256,
225,
244,
254,
230,
259,
219,
246,
250,
234,
232,
265,
211,
257,
242,
244,
235,
234,
239,
256,
274,
245,
222,
226,
244,
241,
219,
256,
262,
223,
220,
223,
247,
238,
254,
222,
277,
232,
234,
241,
243,
199,
218,
227,
211,
223,
207,
221,
222,
229,
226,
226,
246,
204,
228,
208,
246,
193,
199,
197,
201,
201,
216,
222,
233,
207,
232,
224,
207,
178,
211,
202,
205,
190,
207,
228,
189,
189,
168,
206,
226,
224,
206,
178,
201,
212,
203,
198,
199,
199,
191,
211,
161,
213,
202,
177,
174,
174,
184,
177,
172,
182,
204,
167,
181,
189,
186,
165,
172,
170,
193,
171,
158,
166,
185,
185,
162,
153,
149,
173,
169,
171,
175,
165,
160,
185,
171,
174,
174,
157,
160,
161,
157,
146,
165,
176,
153,
162,
170,
139,
165,
141,
158,
141,
147,
137,
143,
149,
168,
133,
157,
133,
143,
138,
150,
130,
149,
141,
128,
129,
171,
140,
150,
166,
133,
131,
121,
142,
140,
115,
124,
142,
131,
138,
125,
127,
124,
120,
136,
134,
122,
123,
122,
130,
113,
107,
119,
136,
125,
120,
108,
106,
119,
135,
108,
122,
118,
98,
110,
124,
99,
112,
99,
107,
114,
115,
93,
89,
105,
109,
108,
105,
95,
112,
92,
114,
101,
89,
106,
100,
90,
79,
95,
86,
98,
95,
91,
96,
88,
82,
74,
72,
90,
93,
107,
93,
82,
67,
94,
94,
91,
79,
90,
94,
94,
73,
77,
73,
88,
85,
57,
91,
69,
68,
68,
66,
79,
64,
78,
84,
67,
76,
63,
59,
66,
58,
59,
64,
63,
54,
63,
66,
61,
65,
54,
53,
54,
61,
47,
52,
62,
62,
44,
51,
46,
57,
40,
58,
56,
51,
49,
68,
39,
49,
43,
45,
45,
50,
49,
35,
47,
41,
49,
52,
40,
56,
37,
45,
39,
34,
30,
55,
37,
48,
29,
42,
32,
42,
38,
32,
22,
38,
32,
35,
32,
25,
35,
33,
22,
23,
35,
21,
27,
23,
29,
20,
18,
22,
25,
32,
25,
23,
18,
33,
24,
24,
13,
29,
19,
19,
18,
18,
21,
9,
24,
20,
9,
10,
15,
18,
14,
17,
12,
8,
17,
8,
13,
8,
9,
8,
11,
9,
13,
14,
6,
9,
8,
7,
5,
8,
7,
4,
7,
0,
4,
3,
4,
2,
0,
0,
0,
0,
3,
0,
0,
1,
0,
0,
0,
0,
1,
0,
0,
0,
0,
1,
0,
0,
0,
0,
1,
0,
0,
0,
0,
0,
1,
0,
1,
0,
0,
0,
0,
0,
0,
0,
0,
0,
0,
2,
0,
1,
0,
0,
1,
0,
1,
0,
0,
1,
0,
0,
0,
0,
0,
0,
0,
0,
0,
0,
0,
0,
0,
1,
0,
0,
0,
0,
0,
0,
0,
0,
0,
0,
0,
1,
0,
0,
0,
0,
0,
0,
0,
0,
0,
0,
0,
0,
0,
0,
0,
0,
0,
0,
0,
0,
0,
1,
0,
0,
0,
0,
0,
0,
0,
0,
0,
0,
0,
0,
0,
0,
0,
0,
2,
0,
0,
0,
0,
0,
0,
0,
0,
0,
0,
0,
0,
0,
0,
0,
0,
0,
0,
0,
2,
0,
0,
3,
0,
1,
0,
1,
1,
0,
0,
0,
0,
0,
1,
0,
0,
0,
0,
0,
0,
1,
0,
0,
0,
0,
0,
0,
0,
0,
0,
1,
0,
0,
1,
0,
0,
0,
0,
0,
1,
0,
1,
0,
0,
0,
0,
0,
0,
0,
0,
0,
0,
0,
0,
0,
1,
0,
0,
0,
0,
0,
0,
0,
0,
0,
0,
1,
0,
0,
1,
0,
0,
0,
0,
0,
0,
2,
0,
1,
0,
1,
0,
0,
1,
0,
0,
0,
0,
0,
0,
0,
0,
0,
0,
1,
0,
0,
0,
0,
0,
0,
0,
1,
0,
0,
0,
0,
1,
0,
0,
0,
0,
0,
0,
0,
0,
0,
0,
0,
0,
0,
0,
0,
1,
0,
0,
1,
0,
0,
0,
0,
0,
0,
0,
0,
0,
0,
0,
0,
0,
0,
0,
1,
0,
0,
0,
0,
0,
0,
1,
0,
1,
0,
0,
0,
0,
0,
0,
0,
0,
0,
0,
0,
0,
1,
0,
0,
1,
0,
1,
1,
0,
0,
0,
0,
0,
0,
0,
0,
0,
0,
0,
0,
0,
0,
0,
0,
0,
0,
0,
0,
0,
0,
0,
0,
#ENDOFDATA   :