File: NeXLSpectrum/Pyrite fragments/Pyrite_1_L1_15kV10nA130kHz_114kHz_100s.msa
#FORMAT      : EMSA/MAS Spectral Data File
#VERSION     : 1.0
#TITLE       : Bruker Nano spectrum Acquisition
#DATE        : 23-AUG-2019
#TIME        : 00:59
#OWNER       : Bruker Nano
#NPOINTS     : 4096
#NCOLUMNS    : 1
#XUNITS      : eV
#YUNITS      : counts
#DATATYPE    : Y
#XPERCHAN    : 5.00257
#OFFSET      : -482.8305
#BEAMKV      : 15
#SIGNALTYPE  : EDS
#ELEVANGLE   : 40
#AZIMANGLE   : 45
#LIVETIME    : 100
#REALTIME    : 127.143
#PROBECUR    : 10
#TAUWIND     : 0
#TDEADLYR    : 0
#TACTLYR     : 0.045
#TALWIND     : 0.004
#CHOFFSET    : 0.0
#XLABEL      : Energy (eV)
#YLABEL      : Counts
#EDSDET      : SDUTW
##DET_HASH   : c6370f9e-cc72-7559-f57e-203d75c8942b
##CALIB_HASH : fcf71094-1a10-2882-685e-00197fff5925
##SAMPLE     : <BulkSample id="1">\n<mOrientation id="2">\n<double>0.0</double>\n<double>0.0</double>\n<double>-1.0</double>\n</mOrientation>\n</BulkSample>
#SPECTRUM    :
0,
0,
0,
0,
0,
0,
0,
0,
0,
0,
0,
0,
0,
0,
0,
0,
1,
0,
4,
12,
16,
28,
29,
48,
47,
39,
54,
267,
3063,
23109,
94622,
211087,
254458,
168748,
61330,
12225,
1555,
240,
104,
0,
351,
3111,
3556,
2957,
1756,
1221,
1124,
1873,
3669,
6906,
9499,
9050,
5965,
2902,
1336,
1050,
1074,
1323,
1360,
1430,
1422,
1488,
1810,
2138,
2976,
4216,
5137,
5688,
5410,
4906,
5411,
7700,
10915,
12712,
12480,
12806,
17666,
29825,
45283,
53427,
47143,
31837,
16960,
8489,
5190,
4141,
4046,
4142,
4210,
4354,
4047,
3632,
3457,
3373,
3346,
3438,
3417,
3505,
3454,
3479,
3555,
3581,
3651,
3653,
3750,
3811,
3776,
3797,
3919,
3828,
3909,
3973,
4047,
4085,
4040,
3980,
4197,
4176,
4334,
4244,
4261,
4249,
4328,
4288,
4318,
4345,
4404,
4423,
4393,
4415,
4456,
4563,
4270,
4342,
4406,
4339,
4220,
4225,
4067,
4089,
4149,
4192,
4162,
4194,
4211,
4273,
4252,
4308,
4282,
4312,
4305,
4235,
4258,
4090,
4143,
4141,
4139,
4065,
4082,
4104,
4136,
4005,
4187,
4214,
4338,
4276,
4322,
4431,
4381,
4337,
4324,
4243,
4294,
4301,
4187,
4285,
4359,
4966,
6566,
10433,
19337,
38351,
73277,
125129,
185623,
236807,
258943,
242347,
192949,
130498,
77595,
41545,
23051,
16606,
16612,
18822,
20589,
20408,
17928,
13828,
10029,
6878,
4710,
3532,
2907,
2609,
2493,
2440,
2385,
2299,
2319,
2275,
2426,
2278,
2324,
2297,
2322,
2353,
2259,
2276,
2212,
2281,
2234,
2151,
2274,
2225,
2209,
2165,
2205,
2199,
2187,
2205,
2156,
2114,
2099,
2190,
2141,
2087,
2074,
2109,
2059,
2103,
2105,
1941,
2063,
2017,
2080,
2016,
2082,
2066,
2085,
2093,
2008,
2049,
2056,
1971,
1983,
2002,
1905,
1976,
1898,
1885,
1895,
1934,
1959,
1905,
1889,
1907,
1853,
1861,
1807,
1873,
1865,
1839,
1797,
1794,
1855,
1845,
1900,
1861,
1843,
1792,
1803,
1806,
1758,
1777,
1684,
1781,
1720,
1704,
1750,
1666,
1690,
1631,
1727,
1762,
1676,
1637,
1600,
1679,
1564,
1602,
1626,
1579,
1621,
1612,
1667,
1566,
1551,
1622,
1578,
1534,
1537,
1562,
1548,
1511,
1481,
1502,
1543,
1511,
1476,
1450,
1562,
1450,
1520,
1414,
1501,
1422,
1453,
1431,
1491,
1412,
1391,
1419,
1363,
1356,
1325,
1326,
1306,
1261,
1230,
1215,
1194,
1295,
1223,
1250,
1270,
1263,
1276,
1256,
1268,
1278,
1297,
1266,
1342,
1280,
1293,
1322,
1220,
1309,
1253,
1291,
1240,
1226,
1295,
1293,
1230,
1223,
1261,
1209,
1231,
1185,
1184,
1224,
1229,
1196,
1214,
1196,
1225,
1181,
1162,
1180,
1143,
1173,
1141,
1061,
1195,
1147,
1126,
1087,
1129,
1104,
1131,
1133,
1138,
1046,
1066,
1167,
1077,
1094,
1128,
1172,
1113,
1083,
1046,
1010,
1033,
1075,
1064,
1015,
1038,
1051,
1048,
996,
1017,
984,
974,
1029,
1011,
1041,
986,
975,
1020,
999,
932,
987,
942,
991,
918,
936,
953,
940,
956,
988,
989,
977,
966,
997,
942,
1000,
1012,
961,
1028,
1027,
1021,
1029,
1122,
1312,
1643,
2168,
3433,
5200,
7680,
11441,
16369,
22038,
27127,
31453,
34026,
34609,
32621,
28714,
23984,
18322,
13034,
9214,
6158,
3911,
2374,
1657,
1208,
1047,
936,
932,
838,
839,
853,
840,
812,
804,
798,
882,
800,
795,
796,
772,
867,
789,
802,
831,
859,
849,
966,
1118,
1327,
1641,
1978,
2517,
3059,
3847,
4269,
4747,
4905,
4829,
4583,
4054,
3572,
2854,
2262,
1753,
1342,
1108,
861,
770,
718,
675,
604,
631,
621,
569,
641,
691,
640,
672,
683,
725,
688,
719,
760,
753,
795,
776,
762,
747,
708,
648,
626,
602,
610,
599,
601,
542,
598,
584,
582,
527,
585,
562,
563,
538,
616,
550,
531,
560,
511,
526,
544,
529,
570,
536,
553,
559,
580,
543,
564,
516,
569,
562,
555,
578,
554,
597,
485,
480,
526,
560,
526,
533,
528,
521,
544,
482,
541,
513,
504,
506,
522,
489,
475,
512,
484,
503,
492,
453,
444,
503,
458,
480,
433,
432,
453,
443,
463,
459,
464,
445,
445,
428,
435,
433,
461,
441,
438,
426,
429,
413,
433,
438,
427,
418,
417,
426,
424,
401,
434,
427,
418,
412,
432,
417,
465,
425,
425,
395,
407,
409,
410,
396,
376,
423,
424,
386,
404,
376,
424,
403,
390,
374,
364,
392,
369,
365,
375,
348,
363,
380,
360,
363,
358,
347,
375,
354,
359,
361,
358,
369,
361,
335,
331,
332,
366,
337,
351,
361,
355,
354,
317,
341,
341,
317,
322,
354,
325,
309,
322,
330,
323,
325,
315,
305,
305,
308,
313,
337,
291,
320,
295,
324,
282,
291,
294,
318,
300,
315,
316,
284,
287,
321,
300,
321,
302,
272,
306,
312,
275,
284,
250,
275,
280,
301,
314,
276,
261,
257,
282,
270,
291,
227,
270,
258,
276,
239,
270,
222,
265,
258,
252,
240,
233,
254,
261,
235,
251,
259,
262,
224,
263,
249,
229,
201,
249,
234,
213,
235,
246,
248,
224,
234,
219,
188,
206,
192,
213,
226,
235,
213,
216,
206,
216,
199,
221,
218,
222,
224,
173,
233,
250,
204,
225,
204,
193,
185,
187,
206,
218,
200,
197,
220,
196,
193,
203,
175,
182,
189,
175,
188,
176,
176,
165,
180,
183,
171,
171,
180,
166,
181,
157,
149,
197,
165,
179,
169,
171,
166,
147,
169,
159,
178,
144,
161,
162,
161,
159,
123,
140,
145,
152,
153,
161,
145,
132,
141,
152,
148,
163,
144,
149,
149,
133,
157,
146,
137,
128,
108,
159,
130,
122,
139,
139,
135,
118,
146,
109,
120,
124,
126,
125,
121,
114,
129,
105,
117,
116,
108,
115,
99,
104,
124,
96,
107,
120,
103,
98,
101,
99,
94,
106,
94,
93,
95,
88,
97,
100,
90,
96,
100,
97,
96,
93,
91,
93,
99,
95,
84,
97,
99,
89,
93,
82,
86,
80,
86,
84,
88,
82,
75,
72,
73,
79,
72,
72,
79,
70,
69,
75,
71,
76,
72,
66,
58,
59,
60,
60,
55,
74,
66,
53,
69,
39,
58,
58,
46,
46,
50,
38,
54,
51,
44,
53,
58,
54,
41,
58,
55,
57,
42,
56,
59,
50,
36,
52,
38,
34,
49,
51,
41,
37,
49,
44,
34,
47,
42,
37,
41,
30,
43,
27,
39,
27,
38,
26,
33,
28,
33,
40,
23,
27,
26,
32,
43,
31,
30,
24,
21,
16,
30,
23,
34,
33,
25,
28,
14,
20,
17,
11,
22,
20,
21,
25,
16,
19,
18,
17,
26,
16,
17,
25,
17,
17,
12,
11,
13,
9,
15,
16,
9,
9,
5,
17,
11,
8,
6,
9,
8,
3,
3,
3,
13,
0,
7,
6,
7,
4,
1,
3,
3,
2,
0,
0,
0,
3,
1,
0,
0,
1,
0,
0,
0,
0,
0,
0,
0,
2,
0,
1,
0,
0,
0,
0,
0,
0,
0,
0,
1,
0,
0,
0,
0,
1,
0,
0,
0,
0,
0,
0,
0,
0,
0,
0,
0,
0,
0,
0,
0,
0,
0,
0,
0,
0,
0,
0,
0,
0,
0,
0,
0,
0,
0,
0,
0,
0,
0,
1,
0,
0,
0,
0,
0,
0,
0,
1,
0,
0,
0,
0,
0,
0,
0,
0,
1,
0,
2,
0,
1,
1,
0,
0,
0,
0,
0,
0,
0,
0,
0,
0,
0,
0,
0,
0,
0,
0,
0,
0,
0,
0,
0,
0,
0,
0,
0,
0,
0,
0,
0,
0,
0,
0,
0,
0,
0,
1,
0,
3,
0,
0,
2,
0,
0,
0,
1,
0,
1,
0,
0,
1,
2,
1,
0,
0,
0,
0,
0,
0,
1,
0,
0,
0,
0,
0,
0,
0,
0,
0,
0,
0,
0,
1,
0,
0,
1,
0,
0,
0,
1,
0,
0,
0,
0,
0,
1,
0,
0,
0,
0,
0,
0,
0,
0,
1,
0,
0,
0,
0,
0,
0,
0,
0,
0,
0,
0,
0,
0,
0,
0,
0,
1,
0,
0,
0,
0,
0,
0,
0,
0,
0,
0,
0,
0,
0,
0,
0,
0,
0,
0,
0,
0,
0,
0,
0,
0,
0,
0,
0,
0,
0,
0,
0,
0,
0,
0,
0,
0,
0,
1,
0,
0,
0,
0,
0,
0,
0,
0,
0,
0,
0,
0,
0,
0,
0,
0,
0,
0,
0,
0,
0,
0,
0,
0,
0,
0,
0,
0,
0,
0,
0,
0,
0,
0,
0,
1,
0,
0,
1,
0,
0,
0,
0,
0,
0,
0,
0,
1,
0,
0,
1,
1,
0,
0,
0,
0,
0,
0,
2,
0,
1,
0,
0,
0,
0,
0,
1,
0,
0,
0,
0,
0,
3,
0,
1,
0,
0,
1,
1,
0,
0,
0,
0,
0,
0,
0,
0,
0,
0,
0,
0,
0,
#ENDOFDATA   :