File: NeXLSpectrum/Pyrite fragments/Pyrite_1_F2_15kV10nA130kHz_114kHz_100s.msa
#FORMAT      : EMSA/MAS Spectral Data File
#VERSION     : 1.0
#TITLE       : Bruker Nano spectrum Acquisition
#DATE        : 23-AUG-2019
#TIME        : 11:16
#OWNER       : Bruker Nano
#NPOINTS     : 4096
#NCOLUMNS    : 1
#XUNITS      : eV
#YUNITS      : counts
#DATATYPE    : Y
#XPERCHAN    : 5.00257
#OFFSET      : -482.8305
#BEAMKV      : 15
#SIGNALTYPE  : EDS
#ELEVANGLE   : 40
#AZIMANGLE   : 45
#LIVETIME    : 100
#REALTIME    : 127.241
#PROBECUR    : 10
#TAUWIND     : 0
#TDEADLYR    : 0
#TACTLYR     : 0.045
#TALWIND     : 0.004
#CHOFFSET    : 0.0
#XLABEL      : Energy (eV)
#YLABEL      : Counts
#EDSDET      : SDUTW
##DET_HASH   : c6370f9e-cc72-7559-f57e-203d75c8942b
##CALIB_HASH : fcf71094-1a10-2882-685e-00197fff5925
##SAMPLE     : <BulkSample id="1">\n<mOrientation id="2">\n<double>0.0</double>\n<double>0.0</double>\n<double>-1.0</double>\n</mOrientation>\n</BulkSample>
#SPECTRUM    :
0,
0,
0,
0,
0,
0,
0,
0,
0,
0,
0,
0,
0,
0,
0,
0,
0,
0,
5,
8,
20,
27,
34,
41,
23,
35,
52,
258,
3183,
23367,
94604,
211225,
254072,
168507,
60927,
12434,
1620,
234,
113,
0,
363,
3137,
3485,
2983,
1891,
1213,
1261,
2170,
4582,
8826,
12306,
11750,
7485,
3482,
1484,
1051,
1136,
1322,
1394,
1507,
1449,
1551,
1739,
2113,
2928,
4174,
5300,
5565,
4998,
5143,
5513,
7753,
10704,
12428,
12550,
12816,
17790,
29674,
45748,
53137,
46832,
31713,
16958,
8773,
5382,
4200,
3917,
3816,
3901,
3991,
3790,
3549,
3354,
3346,
3410,
3429,
3369,
3446,
3528,
3501,
3570,
3644,
3625,
3677,
3671,
3716,
3844,
3878,
3815,
3933,
4171,
4013,
4023,
4124,
4151,
4251,
4182,
4274,
4367,
4262,
4225,
4448,
4403,
4291,
4388,
4453,
4417,
4391,
4425,
4357,
4520,
4447,
4465,
4493,
4488,
4354,
4223,
4092,
4227,
4187,
4204,
4209,
4148,
4235,
4225,
4159,
4225,
4307,
4311,
4262,
4324,
4226,
4315,
4228,
4251,
4105,
4135,
4099,
4175,
4100,
4119,
4182,
4156,
4284,
4206,
4387,
4401,
4446,
4309,
4342,
4343,
4412,
4306,
4285,
4210,
4114,
4340,
4992,
6522,
10342,
19438,
38522,
73729,
125879,
186669,
238078,
259701,
242489,
192391,
131532,
77961,
41731,
23376,
16803,
16562,
18968,
20955,
20480,
18022,
14077,
10086,
6797,
4715,
3607,
2969,
2655,
2500,
2454,
2427,
2381,
2393,
2229,
2355,
2369,
2388,
2259,
2320,
2279,
2236,
2263,
2313,
2230,
2252,
2306,
2249,
2221,
2181,
2169,
2233,
2193,
2188,
2230,
2126,
2136,
2155,
2122,
2140,
2137,
2102,
2119,
2071,
2181,
2076,
2124,
2071,
2048,
2041,
2050,
2056,
2028,
1999,
2048,
2013,
2027,
2008,
1988,
2036,
1980,
2003,
1951,
1990,
1995,
1954,
1954,
1943,
1915,
1842,
1891,
1932,
1847,
1861,
1853,
1819,
1879,
1806,
1877,
1851,
1846,
1783,
1808,
1806,
1831,
1713,
1786,
1714,
1733,
1799,
1723,
1738,
1671,
1700,
1750,
1726,
1720,
1720,
1633,
1705,
1647,
1609,
1709,
1607,
1604,
1631,
1643,
1627,
1634,
1571,
1584,
1629,
1586,
1593,
1579,
1566,
1594,
1515,
1503,
1588,
1558,
1511,
1478,
1469,
1505,
1505,
1561,
1512,
1507,
1444,
1508,
1470,
1448,
1411,
1422,
1479,
1397,
1398,
1385,
1393,
1352,
1306,
1305,
1253,
1231,
1219,
1221,
1244,
1294,
1261,
1290,
1277,
1286,
1311,
1274,
1306,
1309,
1292,
1284,
1284,
1263,
1257,
1255,
1244,
1246,
1269,
1258,
1277,
1235,
1264,
1206,
1264,
1255,
1156,
1178,
1142,
1220,
1253,
1240,
1206,
1194,
1165,
1221,
1176,
1211,
1169,
1158,
1160,
1178,
1096,
1146,
1078,
1108,
1119,
1099,
1143,
1134,
1154,
1122,
1089,
1095,
1024,
1082,
1069,
1082,
1131,
1103,
1041,
1030,
1065,
1041,
1052,
1040,
1059,
1021,
1104,
1038,
1061,
1004,
1021,
1023,
994,
987,
942,
999,
1012,
958,
955,
1000,
1045,
1055,
989,
1002,
970,
1025,
964,
973,
1014,
1010,
983,
907,
953,
973,
1037,
1007,
985,
1005,
1019,
1030,
1125,
1304,
1604,
2188,
3363,
5167,
7899,
11487,
16312,
21609,
26913,
31088,
34008,
34820,
32528,
28837,
23813,
18116,
13455,
9026,
5952,
3689,
2495,
1698,
1248,
1109,
983,
949,
890,
765,
846,
817,
841,
836,
775,
816,
856,
772,
823,
779,
814,
832,
803,
837,
805,
947,
955,
1107,
1338,
1562,
1922,
2534,
3069,
3725,
4304,
4678,
4949,
4883,
4558,
4162,
3421,
2875,
2287,
1784,
1371,
1140,
853,
796,
719,
657,
632,
611,
630,
609,
690,
596,
648,
624,
709,
636,
746,
685,
733,
755,
783,
758,
681,
689,
669,
659,
627,
608,
579,
587,
517,
549,
538,
602,
542,
598,
548,
561,
555,
522,
564,
593,
553,
536,
561,
561,
550,
566,
555,
523,
525,
517,
520,
500,
568,
609,
521,
555,
498,
551,
553,
532,
551,
511,
519,
481,
533,
535,
512,
497,
538,
542,
536,
554,
525,
489,
494,
539,
477,
461,
466,
489,
472,
491,
510,
491,
467,
449,
477,
470,
477,
450,
432,
437,
443,
410,
413,
413,
413,
420,
407,
399,
416,
402,
419,
411,
400,
420,
406,
426,
402,
403,
433,
446,
415,
414,
422,
433,
421,
432,
397,
439,
381,
390,
450,
388,
363,
404,
379,
428,
360,
392,
410,
395,
373,
390,
411,
404,
343,
373,
381,
388,
372,
372,
380,
357,
366,
389,
363,
362,
370,
341,
361,
359,
339,
360,
341,
367,
344,
344,
310,
310,
357,
344,
349,
325,
327,
355,
336,
347,
339,
308,
356,
354,
334,
343,
325,
326,
306,
290,
349,
311,
313,
300,
319,
320,
305,
293,
314,
276,
295,
315,
321,
311,
278,
271,
296,
299,
309,
313,
274,
245,
295,
306,
279,
268,
293,
270,
297,
311,
282,
265,
276,
282,
261,
275,
277,
277,
251,
309,
236,
297,
252,
246,
259,
258,
246,
250,
285,
254,
236,
234,
256,
246,
244,
268,
267,
248,
226,
254,
238,
239,
253,
226,
240,
232,
233,
211,
232,
237,
222,
201,
201,
202,
208,
219,
212,
223,
209,
205,
192,
199,
217,
185,
193,
207,
173,
203,
193,
184,
225,
198,
213,
194,
219,
162,
190,
190,
176,
214,
174,
214,
191,
176,
192,
199,
215,
173,
174,
165,
206,
178,
161,
172,
175,
169,
165,
169,
166,
174,
164,
171,
187,
160,
150,
150,
156,
169,
194,
173,
145,
153,
146,
165,
186,
157,
137,
144,
159,
158,
159,
151,
143,
138,
138,
159,
142,
143,
131,
134,
146,
153,
130,
114,
139,
132,
138,
113,
153,
142,
122,
140,
116,
120,
129,
108,
108,
123,
109,
123,
120,
107,
110,
123,
104,
116,
121,
112,
118,
126,
116,
110,
110,
105,
102,
101,
108,
90,
126,
95,
95,
114,
100,
104,
91,
102,
107,
99,
97,
98,
85,
88,
83,
88,
88,
80,
85,
78,
85,
89,
77,
86,
84,
83,
88,
80,
87,
75,
84,
82,
74,
75,
75,
80,
70,
77,
74,
78,
67,
75,
76,
69,
67,
65,
62,
64,
58,
57,
59,
67,
53,
54,
59,
52,
45,
51,
43,
52,
55,
49,
65,
45,
54,
50,
53,
43,
65,
60,
36,
44,
50,
50,
43,
50,
37,
45,
57,
46,
37,
42,
44,
42,
39,
38,
45,
43,
35,
45,
44,
31,
36,
42,
24,
41,
37,
30,
27,
21,
22,
24,
29,
19,
18,
35,
20,
30,
20,
27,
31,
27,
27,
17,
22,
19,
16,
16,
12,
18,
20,
22,
25,
13,
20,
18,
15,
13,
13,
6,
11,
5,
9,
10,
23,
11,
13,
9,
9,
7,
11,
5,
4,
3,
6,
4,
5,
2,
1,
4,
9,
10,
7,
2,
0,
3,
3,
2,
1,
2,
0,
0,
0,
3,
0,
0,
0,
0,
1,
1,
1,
0,
0,
0,
0,
0,
1,
0,
0,
3,
0,
3,
0,
0,
1,
1,
0,
0,
0,
0,
2,
0,
0,
0,
0,
1,
1,
0,
0,
0,
0,
0,
0,
0,
1,
1,
0,
0,
0,
0,
0,
1,
0,
0,
0,
0,
0,
0,
0,
0,
0,
0,
1,
0,
0,
0,
0,
0,
0,
0,
2,
0,
0,
0,
0,
0,
2,
0,
0,
0,
1,
0,
0,
0,
0,
0,
1,
0,
0,
0,
0,
0,
1,
0,
0,
0,
0,
3,
0,
0,
1,
0,
0,
0,
0,
0,
0,
0,
0,
0,
0,
0,
1,
0,
0,
1,
0,
0,
0,
0,
0,
0,
0,
0,
0,
1,
0,
0,
0,
0,
0,
0,
1,
0,
0,
0,
1,
0,
1,
1,
0,
0,
0,
0,
0,
0,
1,
0,
0,
0,
1,
0,
0,
0,
0,
0,
1,
0,
0,
0,
0,
0,
0,
1,
0,
0,
0,
0,
1,
0,
0,
0,
0,
0,
0,
0,
0,
2,
0,
0,
1,
0,
0,
0,
0,
0,
0,
0,
0,
0,
0,
0,
0,
0,
0,
0,
0,
0,
0,
0,
0,
0,
0,
0,
0,
0,
0,
0,
0,
0,
0,
0,
0,
0,
0,
0,
0,
0,
0,
0,
0,
0,
0,
0,
0,
0,
0,
0,
0,
0,
0,
0,
0,
0,
0,
0,
0,
0,
0,
0,
0,
0,
0,
0,
0,
0,
0,
0,
0,
0,
0,
0,
0,
0,
0,
0,
0,
0,
0,
0,
0,
0,
1,
0,
0,
0,
0,
0,
0,
0,
0,
0,
0,
0,
0,
0,
0,
1,
0,
0,
0,
2,
0,
0,
1,
0,
2,
0,
1,
0,
0,
0,
0,
0,
0,
0,
0,
0,
0,
2,
0,
0,
1,
2,
1,
2,
0,
1,
0,
0,
1,
1,
0,
0,
0,
0,
0,
1,
1,
1,
0,
0,
0,
0,
0,
0,
0,
0,
#ENDOFDATA   :