File: NeXLSpectrum/Pyrite fragments/Pyrite_1_G2_15kV10nA130kHz_129kHz_100s.msa
#FORMAT      : EMSA/MAS Spectral Data File
#VERSION     : 1.0
#TITLE       : Bruker Nano spectrum Acquisition
#DATE        : 23-AUG-2019
#TIME        : 00:05
#OWNER       : Bruker Nano
#NPOINTS     : 4096
#NCOLUMNS    : 1
#XUNITS      : eV
#YUNITS      : counts
#DATATYPE    : Y
#XPERCHAN    : 5.00257
#OFFSET      : -482.8305
#BEAMKV      : 15
#SIGNALTYPE  : EDS
#ELEVANGLE   : 40
#AZIMANGLE   : 45
#LIVETIME    : 100
#REALTIME    : 131.567
#PROBECUR    : 10
#TAUWIND     : 0
#TDEADLYR    : 0
#TACTLYR     : 0.045
#TALWIND     : 0.004
#CHOFFSET    : 0.0
#XLABEL      : Energy (eV)
#YLABEL      : Counts
#EDSDET      : SDUTW
##DET_HASH   : c6370f9e-cc72-7559-f57e-203d75c8942b
##CALIB_HASH : fcf71094-1a10-2882-685e-00197fff5925
##SAMPLE     : <BulkSample id="1">\n<mOrientation id="2">\n<double>0.0</double>\n<double>0.0</double>\n<double>-1.0</double>\n</mOrientation>\n</BulkSample>
#SPECTRUM    :
0,
0,
0,
0,
0,
0,
0,
0,
0,
0,
0,
0,
0,
0,
0,
0,
0,
2,
9,
20,
31,
37,
41,
43,
64,
67,
70,
372,
4238,
30905,
126586,
279911,
340306,
224967,
81077,
16712,
2132,
364,
166,
55,
481,
3572,
4009,
3345,
2091,
1254,
1033,
1239,
1761,
2522,
3095,
2850,
2048,
1278,
1007,
1041,
1149,
1329,
1390,
1418,
1561,
1674,
1946,
2389,
2798,
3437,
3896,
3994,
4039,
4518,
6498,
9517,
13127,
15551,
15517,
15741,
21904,
37370,
55552,
65430,
57546,
38061,
20452,
10307,
6292,
4957,
4603,
4344,
4181,
4189,
4064,
3946,
3855,
3953,
3931,
3902,
4071,
4185,
4187,
4376,
4258,
4427,
4537,
4555,
4610,
4606,
4672,
4840,
4772,
4841,
4889,
4911,
4897,
5020,
5047,
5047,
5142,
5270,
5262,
5183,
5180,
5178,
5290,
5191,
5252,
5265,
5313,
5365,
5275,
5286,
5386,
5399,
5385,
5333,
5307,
5176,
5057,
4978,
4986,
4873,
4891,
4808,
4807,
5032,
4968,
4993,
4980,
5110,
5203,
5104,
5127,
5123,
4986,
4909,
4886,
4894,
4859,
4792,
4736,
4726,
4701,
4795,
4959,
4831,
4819,
4967,
5082,
5136,
5157,
5184,
4917,
4887,
4948,
4768,
4805,
4885,
4997,
5787,
7359,
11758,
21727,
43480,
82496,
141082,
209515,
267557,
291364,
272352,
216483,
147448,
87217,
46945,
26668,
18953,
18956,
21337,
23129,
22871,
20153,
15819,
11399,
7718,
5281,
3906,
3254,
2961,
2882,
2754,
2701,
2778,
2752,
2738,
2735,
2653,
2691,
2721,
2659,
2690,
2609,
2695,
2671,
2660,
2689,
2672,
2601,
2631,
2688,
2612,
2620,
2707,
2673,
2538,
2532,
2510,
2465,
2518,
2497,
2458,
2460,
2398,
2372,
2426,
2336,
2318,
2367,
2349,
2323,
2346,
2381,
2288,
2271,
2272,
2333,
2246,
2248,
2201,
2278,
2191,
2272,
2174,
2232,
2164,
2217,
2204,
2141,
2135,
2162,
2069,
2174,
2158,
2048,
2079,
2127,
2010,
2076,
2017,
2010,
2019,
2018,
2046,
2089,
2009,
1983,
2016,
1953,
1886,
1953,
1934,
1921,
1896,
1896,
1859,
1861,
1936,
1870,
1887,
1888,
1885,
1845,
1875,
1878,
1802,
1747,
1765,
1783,
1797,
1788,
1768,
1811,
1785,
1730,
1749,
1725,
1712,
1708,
1775,
1689,
1675,
1696,
1651,
1662,
1658,
1653,
1649,
1632,
1641,
1628,
1668,
1619,
1624,
1584,
1593,
1588,
1565,
1564,
1533,
1533,
1520,
1491,
1449,
1424,
1407,
1385,
1420,
1400,
1412,
1426,
1445,
1438,
1440,
1448,
1455,
1434,
1455,
1430,
1454,
1523,
1428,
1437,
1431,
1401,
1427,
1418,
1404,
1400,
1429,
1364,
1357,
1381,
1357,
1337,
1354,
1351,
1411,
1307,
1304,
1354,
1307,
1320,
1242,
1243,
1319,
1258,
1309,
1159,
1264,
1251,
1272,
1239,
1305,
1243,
1309,
1193,
1206,
1125,
1188,
1220,
1190,
1230,
1219,
1152,
1161,
1124,
1189,
1157,
1146,
1172,
1156,
1119,
1184,
1098,
1146,
1158,
1100,
1151,
1070,
1125,
1076,
1080,
1121,
1056,
1075,
1104,
1117,
1066,
1102,
1138,
1107,
1062,
1099,
1081,
1081,
1052,
1114,
1078,
1036,
1054,
979,
1061,
1027,
1051,
1063,
1055,
1128,
1159,
1096,
1198,
1419,
1732,
2403,
3623,
5591,
8536,
12277,
17460,
23307,
28695,
33913,
36628,
36899,
34953,
30995,
25384,
19541,
14377,
9644,
6528,
4127,
2636,
1792,
1393,
1076,
1073,
903,
987,
884,
920,
887,
889,
926,
897,
902,
867,
893,
868,
870,
899,
835,
870,
861,
921,
999,
1084,
1164,
1344,
1736,
2129,
2594,
3311,
3930,
4674,
5064,
5358,
5222,
4979,
4486,
3754,
3020,
2461,
1904,
1494,
1173,
952,
862,
758,
773,
732,
706,
691,
660,
701,
611,
695,
710,
673,
753,
700,
711,
777,
689,
738,
760,
735,
708,
702,
617,
650,
727,
669,
631,
653,
664,
626,
621,
632,
702,
579,
649,
597,
587,
621,
582,
582,
611,
608,
584,
644,
558,
573,
566,
615,
548,
599,
603,
579,
586,
585,
580,
557,
558,
587,
547,
565,
594,
584,
550,
567,
559,
547,
533,
550,
515,
522,
570,
569,
553,
530,
540,
537,
553,
526,
542,
512,
546,
511,
531,
473,
529,
511,
476,
531,
490,
459,
471,
487,
493,
485,
449,
463,
482,
489,
457,
439,
473,
453,
470,
449,
446,
444,
455,
439,
436,
441,
459,
447,
468,
447,
476,
426,
419,
418,
474,
434,
420,
462,
423,
411,
465,
443,
439,
404,
412,
451,
421,
389,
422,
426,
399,
405,
408,
395,
388,
378,
382,
396,
371,
374,
379,
379,
379,
383,
390,
380,
366,
359,
388,
385,
354,
406,
362,
355,
370,
379,
360,
364,
383,
352,
391,
367,
316,
338,
358,
358,
348,
345,
354,
344,
311,
353,
351,
338,
334,
328,
314,
325,
328,
362,
350,
336,
296,
321,
331,
304,
311,
315,
333,
328,
309,
314,
288,
311,
326,
325,
324,
334,
356,
303,
316,
272,
283,
313,
284,
326,
290,
259,
286,
290,
310,
316,
311,
249,
278,
286,
259,
266,
287,
277,
246,
299,
276,
267,
244,
229,
251,
275,
262,
262,
284,
274,
254,
247,
250,
285,
239,
239,
275,
250,
238,
232,
250,
244,
206,
232,
241,
246,
272,
239,
217,
214,
204,
217,
224,
213,
209,
219,
219,
192,
214,
171,
216,
205,
205,
197,
227,
189,
221,
215,
203,
192,
207,
194,
200,
188,
207,
214,
195,
177,
180,
175,
187,
183,
199,
198,
178,
200,
169,
186,
185,
163,
183,
177,
166,
204,
190,
163,
163,
177,
177,
159,
155,
164,
155,
159,
175,
157,
139,
174,
152,
146,
153,
176,
133,
169,
140,
149,
160,
161,
129,
135,
133,
136,
142,
143,
117,
141,
128,
144,
131,
124,
143,
154,
124,
138,
118,
140,
138,
141,
124,
122,
145,
122,
137,
113,
116,
138,
124,
134,
106,
118,
123,
114,
117,
110,
105,
118,
100,
81,
99,
101,
128,
105,
98,
92,
100,
104,
107,
82,
94,
89,
99,
86,
95,
90,
85,
85,
95,
103,
84,
91,
86,
88,
76,
87,
73,
88,
81,
75,
82,
64,
62,
86,
84,
78,
71,
78,
99,
68,
79,
74,
74,
67,
79,
71,
63,
72,
71,
63,
58,
67,
63,
59,
48,
68,
44,
47,
49,
61,
49,
65,
60,
48,
65,
56,
48,
47,
50,
52,
57,
44,
52,
37,
46,
52,
57,
53,
23,
36,
33,
43,
41,
47,
39,
41,
24,
27,
31,
37,
38,
28,
36,
31,
35,
41,
47,
32,
41,
22,
39,
34,
32,
26,
27,
30,
15,
23,
23,
23,
31,
22,
28,
24,
25,
17,
20,
25,
19,
20,
30,
13,
13,
12,
18,
11,
12,
10,
17,
17,
13,
11,
11,
19,
5,
8,
3,
13,
14,
7,
7,
6,
5,
2,
12,
9,
9,
3,
12,
3,
5,
3,
0,
3,
1,
2,
2,
3,
0,
2,
1,
0,
0,
0,
0,
0,
0,
0,
0,
1,
0,
0,
0,
0,
0,
0,
0,
0,
0,
0,
0,
0,
0,
0,
0,
0,
0,
0,
0,
0,
0,
1,
1,
1,
1,
0,
0,
0,
0,
2,
2,
0,
0,
0,
0,
0,
0,
0,
0,
0,
0,
0,
0,
0,
0,
0,
0,
0,
0,
0,
0,
0,
0,
0,
0,
0,
0,
0,
0,
1,
0,
0,
0,
0,
0,
0,
0,
0,
0,
0,
0,
1,
0,
1,
0,
0,
0,
0,
1,
0,
0,
0,
1,
0,
0,
0,
0,
0,
0,
0,
0,
0,
0,
0,
0,
0,
0,
0,
1,
0,
0,
0,
0,
0,
0,
2,
0,
0,
0,
0,
0,
0,
0,
0,
0,
0,
0,
0,
0,
0,
0,
0,
0,
0,
4,
0,
0,
0,
0,
1,
2,
0,
1,
0,
0,
0,
0,
0,
0,
0,
1,
0,
1,
0,
0,
0,
0,
3,
0,
0,
0,
0,
0,
1,
0,
0,
0,
2,
0,
1,
0,
0,
0,
0,
0,
0,
0,
0,
1,
0,
0,
1,
0,
0,
1,
0,
0,
0,
1,
0,
0,
1,
0,
0,
0,
0,
0,
0,
0,
0,
0,
1,
0,
0,
0,
0,
0,
0,
0,
1,
0,
0,
0,
0,
0,
1,
0,
1,
1,
1,
0,
0,
0,
0,
0,
0,
0,
0,
0,
0,
0,
0,
0,
0,
0,
0,
1,
0,
0,
0,
0,
0,
0,
0,
0,
0,
0,
0,
1,
0,
0,
0,
0,
0,
0,
0,
0,
1,
0,
0,
0,
2,
0,
0,
0,
0,
0,
0,
3,
0,
0,
0,
1,
0,
0,
0,
0,
0,
1,
0,
0,
0,
0,
0,
0,
0,
0,
0,
0,
0,
1,
0,
0,
0,
0,
0,
0,
0,
2,
0,
0,
1,
0,
1,
1,
2,
1,
1,
0,
1,
0,
0,
0,
0,
0,
2,
0,
0,
0,
0,
0,
0,
0,
0,
0,
0,
0,
0,
0,
#ENDOFDATA   :