File: NeXLSpectrum/Pyrite fragments/Pyrite_1_K1_15kV10nA130kHz_2kHz_100s.msa
#FORMAT      : EMSA/MAS Spectral Data File
#VERSION     : 1.0
#TITLE       : Bruker Nano spectrum Acquisition
#DATE        : 23-AUG-2019
#TIME        : 00:43
#OWNER       : Bruker Nano
#NPOINTS     : 4096
#NCOLUMNS    : 1
#XUNITS      : eV
#YUNITS      : counts
#DATATYPE    : Y
#XPERCHAN    : 5.00257
#OFFSET      : -482.8305
#BEAMKV      : 15
#SIGNALTYPE  : EDS
#ELEVANGLE   : 40
#AZIMANGLE   : 45
#LIVETIME    : 99.999
#REALTIME    : 100.063
#PROBECUR    : 10
#TAUWIND     : 0
#TDEADLYR    : 0
#TACTLYR     : 0.045
#TALWIND     : 0.004
#CHOFFSET    : 0.0
#XLABEL      : Energy (eV)
#YLABEL      : Counts
#EDSDET      : SDUTW
##DET_HASH   : c6370f9e-cc72-7559-f57e-203d75c8942b
##CALIB_HASH : fcf71094-1a10-2882-685e-00197fff5925
##SAMPLE     : <BulkSample id="1">\n<mOrientation id="2">\n<double>0.0</double>\n<double>0.0</double>\n<double>-1.0</double>\n</mOrientation>\n</BulkSample>
#SPECTRUM    :
0,
0,
0,
0,
0,
0,
0,
0,
0,
0,
0,
0,
0,
0,
0,
0,
0,
0,
0,
0,
0,
0,
0,
0,
0,
1,
0,
5,
97,
839,
3552,
8558,
10415,
6853,
2431,
467,
60,
3,
0,
0,
0,
78,
84,
85,
51,
55,
86,
283,
804,
1681,
2459,
2447,
1553,
653,
179,
54,
44,
58,
61,
57,
54,
48,
49,
88,
154,
306,
462,
570,
430,
228,
213,
162,
210,
231,
203,
252,
315,
554,
854,
961,
869,
636,
292,
152,
114,
89,
114,
140,
119,
168,
136,
138,
100,
89,
121,
97,
88,
76,
92,
84,
75,
82,
96,
98,
80,
69,
82,
89,
76,
104,
95,
89,
107,
81,
82,
89,
85,
85,
113,
85,
100,
111,
91,
90,
95,
95,
78,
95,
68,
82,
91,
88,
94,
81,
71,
90,
98,
86,
95,
73,
84,
93,
102,
83,
79,
78,
81,
88,
84,
70,
112,
89,
78,
97,
69,
73,
79,
74,
69,
69,
79,
83,
79,
73,
75,
86,
60,
70,
82,
76,
78,
76,
77,
74,
79,
70,
73,
70,
85,
136,
260,
523,
1008,
1734,
2460,
3285,
3561,
3259,
2641,
1641,
1087,
637,
319,
217,
219,
273,
295,
292,
267,
192,
137,
111,
63,
54,
48,
38,
43,
48,
53,
44,
59,
54,
40,
35,
40,
43,
36,
27,
31,
44,
42,
33,
42,
43,
42,
38,
36,
40,
40,
46,
40,
41,
27,
41,
44,
41,
33,
41,
31,
38,
33,
47,
43,
34,
37,
43,
30,
37,
39,
32,
38,
38,
52,
40,
38,
36,
32,
29,
38,
29,
23,
44,
29,
33,
41,
31,
32,
34,
32,
34,
30,
34,
32,
25,
40,
40,
48,
50,
48,
41,
57,
40,
33,
35,
29,
35,
33,
29,
31,
36,
28,
40,
29,
29,
23,
35,
24,
32,
28,
35,
31,
25,
30,
24,
23,
28,
30,
27,
25,
15,
19,
26,
26,
17,
20,
25,
18,
25,
24,
18,
25,
28,
21,
22,
18,
33,
25,
31,
28,
38,
27,
28,
31,
21,
38,
30,
30,
30,
27,
23,
19,
28,
27,
25,
21,
14,
23,
23,
12,
30,
28,
21,
19,
24,
22,
18,
19,
21,
20,
21,
32,
16,
20,
19,
21,
22,
26,
16,
19,
20,
15,
17,
17,
25,
15,
27,
14,
15,
16,
19,
13,
25,
13,
19,
21,
15,
19,
17,
22,
21,
22,
25,
22,
17,
23,
24,
21,
16,
16,
15,
12,
18,
18,
17,
7,
19,
19,
14,
18,
17,
16,
21,
18,
16,
21,
11,
20,
13,
13,
11,
21,
17,
17,
19,
13,
15,
15,
17,
14,
24,
18,
24,
18,
15,
9,
18,
12,
15,
25,
16,
13,
15,
18,
14,
25,
25,
26,
22,
31,
31,
75,
90,
155,
209,
272,
398,
475,
533,
548,
625,
549,
557,
388,
321,
206,
144,
100,
66,
46,
28,
28,
26,
14,
16,
19,
15,
24,
20,
16,
18,
19,
15,
18,
25,
17,
20,
18,
16,
13,
22,
12,
24,
27,
28,
37,
37,
61,
63,
63,
98,
107,
120,
128,
100,
112,
99,
73,
66,
39,
25,
23,
19,
6,
8,
12,
8,
2,
9,
11,
9,
6,
4,
11,
12,
8,
13,
19,
13,
19,
14,
15,
10,
11,
5,
8,
13,
15,
6,
3,
14,
10,
8,
11,
11,
12,
8,
9,
10,
9,
6,
7,
8,
15,
9,
8,
14,
6,
9,
8,
2,
7,
5,
5,
13,
10,
5,
8,
12,
16,
9,
13,
9,
11,
7,
15,
5,
3,
10,
6,
2,
9,
12,
7,
9,
9,
6,
11,
8,
10,
9,
9,
5,
2,
7,
10,
7,
10,
2,
6,
11,
4,
2,
9,
3,
9,
6,
7,
6,
10,
10,
7,
8,
5,
5,
14,
8,
8,
6,
6,
8,
7,
4,
7,
8,
6,
6,
6,
8,
3,
9,
10,
6,
6,
7,
4,
4,
5,
8,
6,
3,
10,
7,
6,
10,
8,
1,
7,
4,
6,
10,
6,
11,
5,
7,
10,
5,
8,
7,
5,
8,
9,
4,
6,
3,
6,
8,
6,
5,
7,
5,
3,
4,
5,
5,
5,
4,
5,
3,
7,
2,
2,
9,
8,
6,
8,
3,
4,
7,
9,
3,
5,
4,
2,
8,
8,
9,
9,
2,
8,
10,
8,
8,
4,
3,
11,
3,
8,
8,
7,
2,
12,
5,
6,
4,
9,
5,
6,
4,
10,
6,
5,
5,
8,
6,
7,
10,
6,
7,
6,
6,
10,
4,
5,
5,
10,
7,
8,
8,
8,
6,
6,
5,
3,
5,
11,
6,
8,
2,
7,
7,
3,
7,
10,
2,
3,
3,
8,
0,
5,
7,
7,
7,
4,
5,
3,
13,
6,
2,
7,
6,
7,
8,
6,
9,
4,
3,
6,
8,
10,
5,
8,
9,
5,
4,
12,
3,
4,
5,
5,
9,
8,
4,
6,
8,
11,
13,
10,
4,
4,
5,
4,
6,
9,
13,
10,
6,
6,
13,
9,
7,
10,
7,
11,
6,
3,
5,
8,
11,
3,
3,
1,
8,
5,
9,
8,
5,
6,
8,
5,
6,
5,
3,
5,
7,
8,
3,
8,
6,
7,
8,
7,
9,
6,
7,
3,
6,
9,
11,
3,
5,
6,
6,
9,
14,
13,
7,
7,
9,
8,
3,
6,
5,
7,
7,
4,
8,
6,
3,
8,
9,
2,
6,
9,
9,
10,
6,
3,
7,
5,
7,
8,
7,
6,
10,
6,
5,
10,
8,
7,
7,
5,
4,
8,
6,
1,
9,
8,
6,
8,
7,
6,
9,
10,
10,
6,
8,
10,
5,
6,
12,
6,
10,
9,
7,
5,
7,
5,
9,
10,
9,
3,
3,
6,
6,
9,
6,
5,
10,
7,
3,
9,
10,
5,
4,
3,
4,
5,
7,
7,
3,
4,
2,
7,
3,
4,
6,
6,
6,
7,
5,
5,
7,
6,
4,
3,
7,
8,
5,
5,
6,
2,
4,
5,
4,
4,
2,
4,
3,
5,
7,
6,
6,
5,
1,
7,
4,
3,
1,
3,
3,
6,
5,
3,
6,
3,
10,
1,
3,
1,
1,
1,
1,
1,
0,
4,
3,
4,
2,
1,
3,
1,
1,
3,
3,
2,
2,
3,
3,
1,
2,
0,
3,
6,
2,
2,
1,
0,
4,
1,
2,
1,
4,
2,
0,
2,
5,
1,
0,
2,
0,
1,
0,
0,
0,
0,
0,
0,
0,
0,
0,
1,
0,
0,
0,
0,
0,
0,
0,
0,
0,
0,
0,
0,
0,
0,
0,
0,
0,
0,
0,
0,
0,
0,
0,
0,
0,
0,
0,
0,
0,
0,
0,
0,
0,
0,
0,
0,
0,
0,
0,
0,
0,
0,
0,
0,
0,
0,
0,
0,
0,
0,
0,
0,
0,
0,
0,
0,
0,
0,
0,
0,
0,
0,
0,
0,
0,
0,
0,
0,
0,
0,
0,
0,
0,
0,
0,
0,
0,
0,
0,
0,
0,
0,
0,
0,
0,
0,
0,
0,
0,
0,
0,
0,
0,
0,
0,
0,
0,
0,
0,
0,
0,
0,
0,
0,
0,
0,
0,
0,
0,
0,
0,
0,
0,
0,
0,
0,
0,
0,
0,
0,
0,
0,
0,
0,
0,
0,
0,
0,
0,
0,
0,
0,
0,
0,
0,
0,
0,
0,
0,
0,
0,
0,
0,
0,
0,
0,
0,
0,
0,
0,
0,
0,
0,
0,
0,
0,
0,
0,
0,
0,
0,
0,
0,
0,
0,
0,
0,
0,
0,
0,
0,
0,
0,
0,
0,
0,
0,
0,
0,
0,
0,
0,
0,
0,
0,
0,
0,
0,
0,
0,
0,
0,
0,
0,
0,
0,
0,
0,
0,
0,
0,
0,
0,
0,
0,
0,
0,
0,
0,
0,
0,
0,
0,
0,
0,
0,
0,
0,
0,
0,
0,
0,
0,
0,
0,
0,
0,
0,
0,
0,
0,
0,
0,
0,
0,
0,
0,
0,
0,
0,
0,
0,
0,
0,
0,
0,
0,
0,
0,
0,
0,
0,
0,
0,
0,
0,
0,
0,
0,
0,
0,
0,
0,
0,
0,
0,
0,
0,
0,
0,
0,
0,
0,
0,
0,
0,
0,
0,
0,
0,
0,
0,
0,
0,
0,
0,
0,
0,
0,
0,
0,
0,
0,
0,
0,
0,
0,
0,
0,
0,
0,
0,
0,
0,
0,
0,
0,
0,
0,
0,
0,
0,
0,
0,
0,
0,
0,
0,
0,
0,
0,
0,
0,
0,
0,
#ENDOFDATA   :