File: NeXLSpectrum/Pyrite fragments/Pyrite_1_F1_15kV10nA130kHz_114kHz_100s.msa
#FORMAT      : EMSA/MAS Spectral Data File
#VERSION     : 1.0
#TITLE       : Bruker Nano spectrum Acquisition
#DATE        : 23-AUG-2019
#TIME        : 11:13
#OWNER       : Bruker Nano
#NPOINTS     : 4096
#NCOLUMNS    : 1
#XUNITS      : eV
#YUNITS      : counts
#DATATYPE    : Y
#XPERCHAN    : 5.00257
#OFFSET      : -482.8305
#BEAMKV      : 15
#SIGNALTYPE  : EDS
#ELEVANGLE   : 40
#AZIMANGLE   : 45
#LIVETIME    : 100
#REALTIME    : 127.211
#PROBECUR    : 10
#TAUWIND     : 0
#TDEADLYR    : 0
#TACTLYR     : 0.045
#TALWIND     : 0.004
#CHOFFSET    : 0.0
#XLABEL      : Energy (eV)
#YLABEL      : Counts
#EDSDET      : SDUTW
##DET_HASH   : c6370f9e-cc72-7559-f57e-203d75c8942b
##CALIB_HASH : fcf71094-1a10-2882-685e-00197fff5925
##SAMPLE     : <BulkSample id="1">\n<mOrientation id="2">\n<double>0.0</double>\n<double>0.0</double>\n<double>-1.0</double>\n</mOrientation>\n</BulkSample>
#SPECTRUM    :
0,
0,
0,
0,
0,
0,
0,
0,
0,
0,
0,
0,
0,
0,
0,
0,
0,
0,
6,
12,
24,
35,
28,
45,
42,
50,
45,
238,
3251,
23121,
94506,
210203,
255239,
168511,
60551,
12519,
1534,
248,
115,
69,
355,
3146,
3483,
2927,
1861,
1213,
1222,
2141,
4755,
8884,
12669,
11944,
7800,
3724,
1538,
1094,
1152,
1416,
1550,
1524,
1499,
1573,
1747,
2170,
3029,
4427,
5713,
6102,
5672,
5036,
6048,
7618,
10840,
12571,
12158,
12528,
17410,
29683,
44956,
52997,
46944,
31373,
16926,
8476,
5095,
4209,
4032,
3821,
3918,
3999,
3852,
3524,
3293,
3379,
3380,
3457,
3451,
3425,
3475,
3470,
3621,
3680,
3627,
3661,
3649,
3784,
3882,
3762,
3901,
3879,
3956,
4060,
4004,
4159,
4043,
4231,
4173,
4265,
4269,
4276,
4263,
4299,
4268,
4357,
4357,
4406,
4356,
4317,
4357,
4423,
4417,
4428,
4436,
4437,
4328,
4336,
4337,
4061,
4121,
4156,
4061,
4049,
4003,
4202,
4169,
4174,
4183,
4252,
4370,
4312,
4273,
4283,
4154,
4119,
4148,
4184,
4107,
4122,
4003,
4125,
4137,
4111,
4143,
4191,
4146,
4338,
4380,
4350,
4423,
4320,
4400,
4298,
4275,
4217,
4214,
4228,
4483,
4989,
6623,
10169,
19522,
38621,
73439,
124904,
186469,
238208,
259613,
242448,
191894,
131072,
77295,
41900,
23012,
16812,
16752,
18742,
20591,
20256,
17942,
13932,
10110,
6919,
4764,
3570,
2994,
2694,
2564,
2441,
2369,
2394,
2381,
2305,
2359,
2318,
2296,
2335,
2319,
2377,
2269,
2294,
2341,
2208,
2245,
2278,
2235,
2226,
2301,
2158,
2252,
2181,
2170,
2197,
2136,
2172,
2184,
2140,
2143,
2145,
2101,
2074,
2060,
2079,
2144,
2111,
2087,
2106,
2015,
2050,
2033,
2082,
2044,
1971,
2023,
2067,
1972,
1953,
2008,
1993,
1970,
1971,
1964,
2012,
1929,
1911,
1915,
1986,
1900,
1863,
1901,
1878,
1879,
1902,
1852,
1848,
1802,
1832,
1835,
1816,
1769,
1735,
1728,
1818,
1772,
1767,
1756,
1727,
1739,
1739,
1655,
1756,
1737,
1651,
1635,
1782,
1721,
1730,
1679,
1661,
1654,
1666,
1700,
1672,
1624,
1632,
1625,
1598,
1596,
1615,
1574,
1549,
1581,
1523,
1608,
1534,
1511,
1534,
1542,
1564,
1514,
1527,
1559,
1533,
1551,
1507,
1439,
1505,
1506,
1414,
1466,
1409,
1383,
1480,
1438,
1384,
1409,
1387,
1382,
1341,
1316,
1278,
1256,
1239,
1227,
1245,
1240,
1278,
1274,
1276,
1289,
1288,
1274,
1295,
1303,
1317,
1309,
1354,
1321,
1343,
1290,
1268,
1290,
1279,
1261,
1245,
1232,
1260,
1238,
1266,
1229,
1209,
1271,
1184,
1260,
1242,
1205,
1195,
1201,
1204,
1164,
1227,
1164,
1128,
1153,
1119,
1161,
1170,
1169,
1160,
1157,
1117,
1166,
1151,
1055,
1118,
1123,
1159,
1124,
1107,
1136,
1136,
1112,
1079,
1051,
1092,
1034,
1051,
1017,
1031,
1091,
1080,
1016,
1062,
1056,
993,
1024,
1019,
1026,
992,
980,
1009,
994,
987,
1004,
975,
980,
980,
1005,
975,
967,
990,
964,
960,
919,
926,
980,
949,
965,
1002,
983,
982,
907,
1037,
1033,
1043,
1102,
1062,
1149,
1254,
1556,
2249,
3412,
5029,
7681,
11654,
16215,
21511,
26727,
31575,
33854,
34423,
32574,
29037,
23548,
18146,
13290,
9262,
5989,
3747,
2517,
1699,
1276,
1079,
973,
931,
863,
894,
859,
850,
841,
846,
830,
857,
842,
846,
845,
844,
797,
833,
801,
896,
833,
995,
978,
1063,
1320,
1552,
1901,
2516,
3147,
3707,
4289,
4727,
4909,
4849,
4633,
4044,
3533,
2868,
2304,
1763,
1389,
1072,
882,
748,
729,
704,
630,
598,
634,
618,
624,
663,
589,
653,
651,
678,
699,
729,
711,
756,
734,
708,
648,
712,
650,
652,
663,
620,
591,
576,
566,
603,
606,
536,
549,
566,
557,
572,
544,
584,
548,
550,
583,
566,
601,
542,
543,
536,
533,
539,
551,
538,
564,
543,
533,
590,
541,
502,
615,
543,
535,
570,
525,
523,
508,
543,
503,
526,
509,
539,
494,
498,
523,
495,
461,
484,
498,
505,
482,
521,
488,
506,
443,
488,
469,
465,
519,
494,
480,
477,
460,
471,
464,
447,
462,
431,
424,
423,
435,
422,
416,
440,
423,
423,
438,
407,
428,
418,
405,
421,
436,
427,
431,
419,
407,
405,
414,
420,
413,
405,
408,
430,
380,
395,
454,
415,
388,
403,
409,
384,
379,
392,
386,
378,
377,
380,
387,
375,
386,
393,
383,
365,
364,
366,
378,
361,
363,
366,
367,
375,
357,
353,
375,
350,
359,
366,
350,
336,
365,
384,
345,
385,
332,
374,
334,
348,
375,
336,
371,
328,
328,
332,
328,
329,
315,
322,
318,
320,
326,
313,
352,
318,
313,
315,
307,
309,
332,
328,
300,
305,
329,
310,
280,
304,
323,
270,
296,
278,
266,
295,
278,
294,
281,
292,
276,
273,
271,
292,
263,
280,
275,
256,
265,
263,
288,
269,
260,
281,
259,
226,
279,
243,
280,
295,
275,
256,
275,
286,
225,
233,
230,
252,
252,
240,
258,
238,
236,
239,
234,
224,
255,
238,
216,
226,
201,
233,
239,
234,
220,
234,
219,
247,
223,
237,
205,
208,
188,
232,
207,
210,
237,
202,
191,
233,
220,
181,
196,
208,
220,
219,
188,
219,
207,
198,
198,
200,
149,
205,
191,
209,
218,
184,
173,
198,
177,
161,
195,
172,
170,
182,
188,
181,
161,
167,
159,
169,
143,
167,
155,
166,
149,
152,
165,
179,
154,
199,
166,
148,
160,
161,
138,
164,
137,
148,
141,
137,
145,
147,
139,
125,
168,
159,
136,
121,
166,
132,
140,
120,
150,
116,
155,
149,
149,
140,
129,
123,
130,
112,
125,
148,
119,
141,
115,
139,
133,
109,
121,
118,
109,
126,
115,
116,
114,
118,
123,
107,
105,
114,
94,
104,
146,
106,
122,
96,
86,
113,
93,
108,
86,
82,
89,
85,
83,
96,
100,
94,
87,
90,
92,
84,
97,
82,
107,
89,
88,
79,
101,
87,
91,
80,
83,
76,
90,
86,
77,
84,
75,
63,
82,
66,
62,
58,
59,
84,
79,
84,
70,
60,
65,
66,
69,
78,
69,
67,
61,
39,
52,
58,
68,
70,
52,
57,
66,
57,
59,
63,
60,
44,
56,
55,
40,
51,
47,
56,
48,
38,
44,
34,
37,
31,
57,
53,
44,
41,
42,
41,
33,
46,
46,
25,
42,
36,
36,
47,
38,
40,
44,
37,
26,
37,
41,
32,
25,
20,
44,
26,
28,
28,
34,
37,
32,
36,
25,
26,
32,
26,
25,
25,
23,
15,
23,
25,
13,
22,
18,
22,
27,
25,
13,
30,
10,
20,
7,
12,
24,
16,
15,
18,
23,
16,
20,
17,
9,
11,
10,
11,
6,
5,
8,
6,
7,
0,
6,
5,
8,
3,
8,
3,
5,
6,
4,
0,
1,
0,
0,
3,
0,
2,
0,
0,
0,
1,
0,
0,
0,
0,
0,
0,
0,
0,
0,
0,
0,
0,
0,
0,
0,
0,
0,
1,
0,
0,
0,
0,
0,
0,
0,
0,
1,
3,
0,
0,
0,
0,
0,
2,
1,
0,
0,
0,
0,
0,
1,
0,
1,
0,
0,
0,
1,
0,
0,
0,
0,
0,
0,
1,
0,
0,
0,
0,
0,
1,
0,
2,
0,
0,
1,
0,
0,
0,
1,
0,
0,
0,
0,
0,
0,
0,
0,
0,
0,
0,
0,
0,
0,
0,
0,
2,
0,
0,
0,
0,
0,
0,
0,
2,
2,
0,
0,
0,
0,
0,
0,
0,
0,
0,
0,
1,
0,
1,
0,
0,
0,
0,
0,
1,
0,
0,
0,
1,
0,
0,
0,
0,
0,
0,
0,
0,
1,
2,
0,
0,
0,
0,
1,
1,
3,
0,
1,
0,
1,
0,
0,
0,
0,
0,
0,
0,
0,
2,
0,
0,
0,
0,
0,
1,
0,
0,
0,
0,
0,
0,
0,
0,
0,
0,
0,
1,
0,
0,
1,
0,
0,
0,
0,
0,
0,
0,
1,
0,
0,
0,
0,
0,
0,
0,
0,
0,
0,
0,
0,
0,
1,
0,
0,
0,
0,
0,
0,
0,
0,
0,
0,
0,
0,
0,
0,
0,
0,
0,
0,
0,
1,
0,
0,
2,
1,
0,
0,
0,
0,
0,
0,
0,
0,
0,
0,
0,
0,
0,
0,
0,
0,
0,
0,
0,
0,
0,
0,
0,
0,
0,
0,
0,
0,
0,
0,
0,
0,
0,
0,
0,
0,
0,
0,
0,
0,
0,
0,
0,
0,
0,
0,
0,
0,
0,
0,
0,
3,
1,
0,
1,
0,
0,
0,
0,
1,
0,
0,
1,
0,
0,
0,
1,
0,
0,
0,
1,
0,
0,
0,
0,
0,
0,
0,
0,
0,
1,
0,
0,
1,
0,
0,
1,
0,
0,
0,
0,
0,
0,
1,
0,
0,
1,
0,
0,
0,
0,
0,
0,
0,
1,
0,
0,
0,
0,
#ENDOFDATA   :