File: NeXLSpectrum/Pyrite fragments/Pyrite_1_I1_15kV10nA130kHz_129kHz_100s.msa
#FORMAT      : EMSA/MAS Spectral Data File
#VERSION     : 1.0
#TITLE       : Bruker Nano spectrum Acquisition
#DATE        : 23-AUG-2019
#TIME        : 00:25
#OWNER       : Bruker Nano
#NPOINTS     : 4096
#NCOLUMNS    : 1
#XUNITS      : eV
#YUNITS      : counts
#DATATYPE    : Y
#XPERCHAN    : 5.00257
#OFFSET      : -482.8305
#BEAMKV      : 15
#SIGNALTYPE  : EDS
#ELEVANGLE   : 40
#AZIMANGLE   : 45
#LIVETIME    : 100
#REALTIME    : 131.648
#PROBECUR    : 10
#TAUWIND     : 0
#TDEADLYR    : 0
#TACTLYR     : 0.045
#TALWIND     : 0.004
#CHOFFSET    : 0.0
#XLABEL      : Energy (eV)
#YLABEL      : Counts
#EDSDET      : SDUTW
##DET_HASH   : c6370f9e-cc72-7559-f57e-203d75c8942b
##CALIB_HASH : fcf71094-1a10-2882-685e-00197fff5925
##SAMPLE     : <BulkSample id="1">\n<mOrientation id="2">\n<double>0.0</double>\n<double>0.0</double>\n<double>-1.0</double>\n</mOrientation>\n</BulkSample>
#SPECTRUM    :
0,
0,
0,
0,
0,
0,
0,
0,
0,
0,
0,
0,
0,
0,
0,
0,
0,
0,
2,
24,
37,
43,
65,
50,
45,
50,
63,
353,
4288,
30922,
126043,
281162,
340574,
224662,
81365,
16338,
2177,
339,
154,
118,
465,
3570,
3970,
3264,
2025,
1282,
1027,
1204,
1730,
2531,
3208,
2902,
2095,
1296,
1008,
995,
1143,
1283,
1424,
1494,
1529,
1732,
1982,
2443,
2897,
3529,
4194,
4244,
4327,
4900,
6518,
9318,
13472,
15607,
15285,
15633,
21941,
37000,
55893,
65379,
57756,
38742,
20591,
10074,
6291,
5073,
4633,
4385,
4230,
4080,
4093,
3892,
3908,
3871,
3838,
3946,
4083,
4072,
4199,
4215,
4370,
4420,
4498,
4560,
4524,
4629,
4785,
4851,
4647,
4832,
4941,
4885,
5072,
5154,
5055,
5036,
5215,
5133,
5142,
5243,
5242,
5088,
5204,
5322,
5325,
5290,
5237,
5227,
5289,
5272,
5285,
5298,
5457,
5303,
5182,
5281,
5082,
5042,
4807,
4899,
4859,
4841,
4927,
4847,
5031,
4807,
4907,
5100,
5104,
5173,
5188,
5105,
5071,
4902,
4909,
4968,
4842,
4840,
4805,
4696,
4831,
4758,
4757,
4911,
4983,
4958,
4974,
5003,
5067,
5091,
4991,
4904,
4874,
4740,
4817,
4822,
5045,
5730,
7398,
11705,
21808,
43332,
82766,
141084,
209638,
267614,
291846,
273068,
217023,
146945,
87548,
47240,
26580,
19082,
18871,
21338,
23410,
22928,
20131,
16004,
11246,
7871,
5428,
3990,
3225,
2939,
2823,
2714,
2765,
2734,
2740,
2773,
2763,
2698,
2625,
2623,
2712,
2635,
2637,
2709,
2630,
2675,
2635,
2573,
2511,
2563,
2549,
2611,
2566,
2617,
2617,
2566,
2468,
2486,
2489,
2475,
2449,
2442,
2401,
2481,
2389,
2377,
2362,
2449,
2341,
2402,
2369,
2353,
2376,
2363,
2297,
2281,
2337,
2225,
2369,
2226,
2238,
2257,
2220,
2283,
2193,
2191,
2149,
2157,
2153,
2142,
2177,
2101,
2116,
2217,
2107,
2033,
2041,
2096,
2074,
2090,
2089,
2012,
2061,
2045,
2024,
1976,
2040,
2040,
2008,
1994,
1964,
1956,
1967,
1955,
1909,
1899,
1895,
1922,
1824,
1921,
1883,
1895,
1845,
1837,
1844,
1749,
1832,
1830,
1813,
1835,
1751,
1792,
1737,
1777,
1661,
1708,
1735,
1688,
1743,
1719,
1718,
1730,
1764,
1743,
1719,
1683,
1586,
1644,
1590,
1645,
1638,
1619,
1612,
1587,
1643,
1600,
1528,
1515,
1513,
1542,
1492,
1456,
1426,
1432,
1379,
1350,
1333,
1336,
1345,
1356,
1381,
1396,
1407,
1423,
1410,
1424,
1416,
1395,
1403,
1398,
1391,
1381,
1441,
1415,
1439,
1365,
1435,
1367,
1370,
1352,
1337,
1359,
1333,
1355,
1362,
1327,
1349,
1392,
1345,
1308,
1331,
1315,
1329,
1375,
1284,
1255,
1190,
1251,
1292,
1259,
1254,
1224,
1239,
1221,
1260,
1260,
1274,
1280,
1257,
1231,
1277,
1242,
1194,
1192,
1153,
1162,
1139,
1147,
1214,
1190,
1146,
1151,
1123,
1157,
1123,
1150,
1159,
1098,
1203,
1120,
1108,
1118,
1115,
1092,
1091,
1126,
1107,
1085,
1070,
1029,
1067,
1042,
1019,
996,
1115,
1067,
1056,
1054,
1092,
1060,
1042,
1048,
1036,
987,
1007,
1069,
1041,
1106,
1072,
1120,
1197,
1313,
1742,
2492,
3568,
5531,
8596,
12443,
17628,
23078,
29214,
33584,
36624,
36988,
35027,
30738,
25588,
19668,
14388,
9876,
6371,
4146,
2607,
1820,
1396,
1115,
1011,
967,
964,
927,
938,
904,
938,
921,
867,
866,
907,
899,
844,
889,
911,
894,
856,
964,
902,
970,
1044,
1235,
1406,
1716,
2107,
2774,
3334,
3946,
4521,
5054,
5267,
5193,
4960,
4432,
3796,
3052,
2442,
1920,
1446,
1178,
1006,
844,
795,
785,
713,
699,
669,
633,
648,
718,
712,
681,
713,
684,
706,
725,
693,
705,
725,
747,
676,
735,
712,
702,
709,
665,
644,
594,
720,
600,
602,
627,
613,
631,
568,
610,
573,
673,
624,
635,
602,
604,
563,
650,
565,
527,
578,
581,
581,
581,
596,
598,
643,
608,
585,
551,
573,
612,
583,
532,
621,
594,
591,
561,
583,
567,
538,
573,
610,
529,
543,
536,
502,
586,
526,
547,
542,
532,
582,
499,
527,
562,
499,
525,
545,
527,
506,
492,
508,
496,
512,
452,
493,
454,
464,
469,
451,
460,
469,
448,
480,
451,
464,
446,
461,
443,
453,
456,
442,
444,
443,
425,
450,
423,
412,
422,
427,
447,
400,
469,
463,
460,
435,
441,
454,
403,
424,
423,
446,
423,
434,
419,
395,
397,
447,
429,
415,
364,
401,
439,
417,
393,
404,
403,
404,
385,
400,
389,
373,
396,
367,
393,
358,
387,
371,
397,
362,
368,
370,
327,
350,
381,
363,
367,
381,
355,
371,
341,
374,
390,
377,
359,
356,
362,
330,
384,
346,
366,
336,
350,
360,
322,
336,
339,
338,
341,
355,
356,
331,
306,
312,
333,
301,
344,
294,
312,
303,
278,
297,
313,
291,
304,
294,
281,
306,
279,
313,
277,
312,
299,
302,
285,
285,
287,
277,
303,
273,
285,
264,
311,
281,
307,
258,
298,
286,
259,
249,
270,
249,
263,
284,
260,
280,
279,
235,
246,
274,
270,
246,
243,
215,
219,
242,
268,
238,
239,
266,
248,
247,
237,
257,
222,
202,
217,
221,
236,
229,
218,
256,
213,
213,
219,
216,
192,
233,
194,
221,
215,
211,
205,
209,
232,
239,
208,
212,
241,
196,
219,
190,
200,
201,
192,
197,
203,
193,
224,
183,
165,
182,
191,
175,
200,
181,
194,
158,
176,
192,
184,
180,
180,
161,
182,
159,
186,
149,
160,
173,
153,
173,
194,
167,
158,
165,
155,
160,
192,
162,
155,
166,
169,
165,
180,
150,
142,
152,
150,
138,
136,
127,
146,
140,
134,
137,
132,
127,
128,
149,
160,
127,
150,
114,
148,
131,
113,
137,
115,
126,
125,
121,
146,
128,
126,
131,
121,
120,
113,
102,
103,
109,
101,
112,
111,
111,
94,
104,
121,
105,
97,
90,
105,
107,
95,
97,
102,
104,
88,
107,
90,
98,
88,
93,
89,
81,
89,
96,
84,
93,
87,
93,
81,
84,
90,
84,
82,
77,
86,
71,
78,
81,
65,
70,
71,
80,
80,
73,
71,
78,
66,
70,
68,
64,
73,
60,
78,
53,
44,
64,
56,
65,
79,
61,
53,
58,
68,
55,
50,
58,
62,
59,
49,
48,
51,
43,
49,
54,
60,
41,
37,
45,
45,
41,
46,
34,
50,
47,
52,
37,
50,
37,
38,
39,
41,
46,
44,
28,
41,
46,
44,
34,
29,
30,
33,
30,
31,
27,
35,
30,
39,
25,
33,
21,
38,
21,
29,
16,
23,
28,
30,
30,
20,
25,
17,
29,
18,
19,
17,
23,
26,
10,
13,
19,
13,
10,
14,
15,
13,
10,
16,
11,
11,
8,
12,
12,
17,
12,
1,
3,
3,
2,
4,
4,
0,
14,
5,
4,
1,
2,
6,
1,
6,
0,
0,
4,
1,
0,
0,
3,
0,
0,
0,
0,
1,
0,
1,
0,
0,
0,
0,
0,
0,
0,
1,
0,
0,
0,
0,
0,
0,
0,
0,
0,
0,
2,
0,
0,
0,
3,
0,
2,
0,
0,
2,
3,
0,
0,
0,
2,
0,
0,
0,
0,
3,
0,
0,
0,
0,
2,
1,
4,
0,
0,
0,
0,
0,
0,
0,
0,
0,
0,
0,
0,
0,
0,
0,
0,
0,
0,
0,
0,
0,
0,
0,
0,
0,
1,
0,
0,
0,
1,
0,
0,
0,
0,
0,
0,
0,
0,
0,
0,
0,
0,
0,
0,
0,
1,
0,
0,
0,
2,
0,
0,
0,
0,
0,
0,
0,
0,
0,
1,
0,
0,
0,
0,
0,
1,
0,
0,
0,
0,
0,
0,
0,
0,
0,
0,
0,
0,
0,
0,
1,
0,
0,
0,
0,
0,
0,
0,
0,
1,
0,
0,
0,
0,
0,
1,
0,
0,
0,
1,
0,
0,
0,
0,
0,
0,
0,
0,
0,
1,
0,
0,
0,
0,
0,
0,
0,
0,
0,
0,
0,
0,
0,
0,
0,
0,
0,
0,
0,
0,
0,
0,
0,
0,
0,
0,
0,
1,
0,
0,
0,
0,
0,
0,
0,
1,
0,
0,
0,
0,
0,
0,
0,
0,
0,
0,
0,
0,
0,
0,
0,
0,
0,
0,
0,
0,
0,
0,
0,
0,
0,
0,
0,
0,
0,
0,
0,
0,
0,
0,
0,
0,
0,
0,
0,
0,
0,
0,
0,
0,
0,
0,
0,
0,
0,
0,
0,
0,
0,
1,
0,
0,
0,
0,
0,
0,
0,
0,
0,
0,
0,
0,
0,
0,
0,
0,
0,
0,
0,
0,
0,
0,
0,
1,
0,
1,
0,
0,
0,
0,
0,
0,
0,
0,
0,
0,
1,
0,
0,
1,
0,
0,
0,
0,
1,
0,
0,
0,
0,
0,
0,
1,
0,
0,
1,
0,
0,
0,
0,
1,
0,
0,
0,
0,
0,
1,
0,
0,
0,
0,
0,
0,
1,
0,
0,
#ENDOFDATA   :