File: NeXLSpectrum/Pyrite fragments/Pyrite_1_L2_15kV10nA130kHz_114kHz_100s.msa
#FORMAT      : EMSA/MAS Spectral Data File
#VERSION     : 1.0
#TITLE       : Bruker Nano spectrum Acquisition
#DATE        : 23-AUG-2019
#TIME        : 01:02
#OWNER       : Bruker Nano
#NPOINTS     : 4096
#NCOLUMNS    : 1
#XUNITS      : eV
#YUNITS      : counts
#DATATYPE    : Y
#XPERCHAN    : 5.00257
#OFFSET      : -482.8305
#BEAMKV      : 15
#SIGNALTYPE  : EDS
#ELEVANGLE   : 40
#AZIMANGLE   : 45
#LIVETIME    : 100
#REALTIME    : 126.888
#PROBECUR    : 10
#TAUWIND     : 0
#TDEADLYR    : 0
#TACTLYR     : 0.045
#TALWIND     : 0.004
#CHOFFSET    : 0.0
#XLABEL      : Energy (eV)
#YLABEL      : Counts
#EDSDET      : SDUTW
##DET_HASH   : c6370f9e-cc72-7559-f57e-203d75c8942b
##CALIB_HASH : fcf71094-1a10-2882-685e-00197fff5925
##SAMPLE     : <BulkSample id="1">\n<mOrientation id="2">\n<double>0.0</double>\n<double>0.0</double>\n<double>-1.0</double>\n</mOrientation>\n</BulkSample>
#SPECTRUM    :
0,
0,
0,
0,
0,
0,
0,
0,
0,
0,
0,
0,
0,
0,
0,
0,
0,
3,
2,
15,
29,
25,
26,
33,
37,
35,
33,
284,
3089,
23385,
94515,
211011,
255107,
168561,
60970,
12467,
1675,
234,
117,
0,
350,
3182,
3608,
2832,
1933,
1178,
1174,
1977,
3926,
7287,
10303,
9671,
6349,
2958,
1371,
1079,
1194,
1325,
1449,
1422,
1403,
1521,
1720,
2259,
3015,
4418,
5568,
6024,
5708,
5027,
5921,
7764,
10844,
12679,
12328,
12480,
17477,
29851,
44972,
52815,
47177,
31341,
17074,
8588,
5266,
4298,
4003,
4069,
4313,
4401,
4098,
3730,
3467,
3367,
3453,
3402,
3426,
3403,
3455,
3483,
3572,
3577,
3687,
3689,
3653,
3679,
3752,
3824,
3884,
3927,
3892,
4030,
3959,
4042,
4031,
4099,
4184,
4184,
4151,
4150,
4345,
4182,
4192,
4227,
4318,
4267,
4322,
4364,
4379,
4388,
4390,
4507,
4535,
4445,
4426,
4324,
4170,
4275,
4164,
4116,
4144,
3995,
4085,
4119,
4042,
4132,
4168,
4213,
4150,
4320,
4337,
4211,
4232,
4101,
4165,
4098,
4175,
4106,
4065,
4170,
4155,
4102,
4089,
4161,
4258,
4194,
4234,
4320,
4303,
4226,
4263,
4227,
4196,
4159,
4070,
4229,
4434,
5006,
6561,
10278,
19136,
38227,
72906,
124814,
184631,
236460,
257520,
239828,
190694,
129566,
76611,
41683,
22881,
16593,
16456,
18498,
20242,
20213,
17604,
13722,
9938,
6841,
4722,
3513,
2893,
2611,
2535,
2442,
2385,
2387,
2326,
2273,
2309,
2275,
2251,
2315,
2318,
2259,
2238,
2327,
2187,
2284,
2230,
2217,
2227,
2220,
2270,
2217,
2166,
2186,
2154,
2154,
2151,
2109,
2094,
2130,
2118,
2075,
2113,
2128,
2027,
2074,
2098,
2045,
1992,
2060,
2052,
2099,
2057,
1985,
2009,
1975,
1932,
2023,
1986,
2017,
1966,
1925,
1964,
1946,
1904,
1956,
1904,
1858,
1856,
1967,
1927,
1803,
1875,
1979,
1884,
1819,
1780,
1798,
1841,
1754,
1840,
1791,
1841,
1749,
1805,
1786,
1674,
1769,
1762,
1758,
1748,
1757,
1719,
1693,
1751,
1699,
1725,
1649,
1696,
1662,
1630,
1652,
1684,
1700,
1622,
1628,
1635,
1577,
1543,
1605,
1557,
1581,
1543,
1584,
1603,
1604,
1575,
1550,
1527,
1565,
1552,
1510,
1486,
1461,
1491,
1444,
1512,
1477,
1458,
1439,
1519,
1426,
1447,
1425,
1412,
1385,
1423,
1412,
1380,
1393,
1336,
1358,
1331,
1285,
1265,
1231,
1215,
1248,
1253,
1273,
1254,
1280,
1289,
1324,
1309,
1290,
1286,
1302,
1284,
1335,
1277,
1261,
1310,
1286,
1276,
1226,
1237,
1235,
1270,
1250,
1269,
1229,
1288,
1235,
1201,
1201,
1217,
1181,
1183,
1192,
1204,
1230,
1184,
1203,
1171,
1147,
1077,
1143,
1125,
1161,
1231,
1140,
1204,
1085,
1073,
1143,
1100,
1136,
1113,
1114,
1108,
1090,
1076,
1050,
1050,
1043,
1042,
1061,
1088,
1107,
1055,
1053,
967,
1019,
1047,
1049,
1041,
986,
1072,
1021,
912,
1002,
1018,
1061,
997,
1039,
960,
977,
946,
955,
943,
949,
911,
939,
963,
937,
978,
933,
1019,
922,
914,
978,
930,
963,
980,
970,
979,
966,
1070,
1070,
1179,
1266,
1512,
2164,
3329,
5010,
7756,
11516,
16157,
21514,
26749,
31305,
34226,
34214,
32699,
28655,
23901,
18527,
13373,
9120,
5998,
3747,
2423,
1676,
1283,
1063,
901,
897,
852,
863,
803,
790,
802,
785,
835,
800,
823,
826,
809,
811,
848,
844,
777,
872,
795,
858,
972,
1118,
1305,
1544,
1983,
2450,
3006,
3640,
4308,
4675,
4935,
4843,
4539,
4073,
3459,
2862,
2220,
1744,
1364,
1100,
886,
799,
728,
684,
602,
620,
676,
588,
578,
676,
678,
597,
680,
669,
721,
727,
774,
773,
771,
793,
742,
738,
702,
668,
678,
645,
603,
581,
581,
529,
555,
595,
557,
548,
578,
557,
592,
577,
551,
561,
541,
566,
530,
548,
549,
504,
560,
553,
571,
524,
568,
586,
531,
533,
528,
547,
574,
593,
527,
516,
500,
524,
482,
484,
513,
548,
542,
523,
505,
553,
498,
506,
497,
515,
505,
503,
522,
490,
430,
489,
504,
493,
481,
472,
429,
508,
426,
448,
413,
462,
428,
424,
409,
429,
456,
442,
465,
441,
426,
447,
418,
426,
418,
447,
414,
430,
456,
426,
395,
405,
414,
421,
410,
411,
441,
438,
429,
411,
426,
418,
386,
452,
373,
416,
431,
379,
421,
392,
410,
387,
372,
406,
385,
356,
409,
363,
367,
365,
361,
354,
367,
357,
363,
357,
371,
366,
367,
356,
363,
353,
366,
356,
362,
368,
352,
381,
337,
351,
339,
335,
380,
367,
355,
331,
345,
328,
333,
356,
346,
313,
322,
323,
336,
337,
321,
332,
317,
319,
322,
349,
317,
309,
297,
309,
319,
301,
301,
300,
340,
290,
273,
317,
304,
245,
314,
267,
288,
317,
316,
289,
288,
308,
293,
271,
310,
282,
283,
302,
267,
282,
291,
281,
273,
262,
282,
250,
276,
256,
269,
265,
273,
256,
278,
264,
235,
245,
256,
257,
228,
232,
228,
235,
255,
261,
233,
249,
237,
244,
214,
239,
247,
227,
239,
202,
223,
226,
203,
228,
230,
226,
237,
198,
222,
235,
228,
206,
204,
226,
174,
199,
220,
205,
215,
225,
224,
204,
183,
212,
208,
163,
175,
201,
188,
194,
186,
219,
195,
170,
224,
183,
190,
175,
156,
178,
186,
176,
183,
176,
190,
203,
179,
190,
168,
152,
161,
177,
178,
175,
163,
161,
157,
167,
162,
136,
163,
164,
193,
165,
148,
148,
159,
160,
146,
145,
135,
136,
159,
167,
168,
151,
136,
138,
153,
154,
115,
158,
135,
141,
138,
144,
112,
141,
129,
113,
114,
121,
133,
122,
130,
121,
128,
123,
135,
115,
112,
122,
93,
123,
112,
111,
109,
99,
107,
112,
125,
110,
124,
93,
114,
102,
95,
111,
108,
93,
105,
102,
88,
78,
86,
92,
87,
99,
96,
98,
89,
90,
97,
98,
108,
89,
99,
91,
95,
104,
81,
78,
95,
83,
77,
93,
79,
78,
80,
81,
82,
73,
83,
77,
56,
78,
87,
82,
52,
80,
67,
61,
67,
72,
66,
60,
68,
59,
68,
54,
55,
48,
62,
58,
55,
50,
50,
57,
69,
58,
58,
34,
65,
51,
54,
59,
40,
56,
59,
51,
62,
53,
47,
57,
39,
51,
42,
41,
52,
36,
50,
46,
33,
40,
37,
34,
32,
31,
36,
40,
25,
29,
46,
24,
36,
29,
38,
31,
31,
19,
24,
22,
35,
23,
31,
33,
20,
31,
29,
22,
24,
24,
33,
28,
30,
17,
20,
19,
10,
19,
21,
16,
24,
11,
26,
21,
10,
13,
24,
18,
14,
9,
9,
10,
12,
11,
19,
11,
18,
13,
10,
12,
7,
8,
2,
7,
5,
0,
4,
8,
3,
2,
7,
4,
2,
3,
4,
0,
1,
0,
0,
2,
0,
1,
0,
0,
5,
1,
0,
0,
0,
0,
0,
1,
1,
1,
0,
1,
1,
0,
0,
0,
1,
0,
0,
0,
0,
0,
0,
0,
1,
0,
2,
0,
0,
0,
0,
3,
3,
0,
0,
0,
0,
0,
0,
0,
0,
0,
0,
0,
0,
0,
0,
2,
0,
2,
0,
0,
0,
0,
1,
0,
1,
0,
0,
0,
2,
0,
1,
0,
1,
1,
0,
0,
2,
0,
3,
0,
0,
0,
0,
2,
0,
0,
0,
1,
0,
0,
0,
0,
0,
1,
0,
0,
2,
0,
0,
0,
0,
0,
0,
0,
0,
0,
2,
0,
0,
0,
0,
0,
0,
0,
0,
0,
0,
1,
1,
0,
0,
0,
0,
1,
0,
0,
0,
0,
0,
0,
0,
0,
0,
0,
0,
0,
1,
0,
0,
0,
0,
0,
1,
0,
0,
0,
0,
0,
0,
0,
0,
0,
0,
0,
0,
0,
0,
0,
0,
0,
0,
0,
1,
0,
1,
0,
0,
0,
0,
0,
1,
1,
0,
0,
0,
0,
1,
0,
0,
0,
1,
0,
0,
0,
0,
0,
1,
0,
0,
0,
0,
0,
0,
0,
0,
0,
0,
0,
0,
0,
0,
0,
0,
0,
0,
0,
0,
0,
0,
0,
0,
0,
0,
0,
0,
0,
0,
0,
0,
0,
0,
0,
0,
0,
0,
0,
0,
0,
0,
0,
0,
0,
0,
0,
0,
0,
0,
0,
0,
0,
1,
0,
0,
0,
0,
0,
0,
1,
0,
0,
0,
0,
0,
1,
0,
0,
0,
0,
0,
0,
0,
0,
0,
0,
0,
0,
0,
0,
0,
0,
0,
2,
1,
0,
0,
1,
0,
0,
0,
0,
2,
0,
0,
1,
0,
0,
1,
0,
0,
0,
1,
1,
0,
0,
1,
0,
0,
0,
1,
2,
0,
0,
0,
0,
0,
0,
1,
0,
0,
0,
1,
0,
0,
0,
1,
0,
0,
0,
0,
1,
0,
0,
0,
0,
0,
0,
0,
0,
0,
0,
0,
0,
#ENDOFDATA   :