File: NeXLSpectrum/Pyrite fragments/Pyrite_1_H3_15kV10nA130kHz_31kHz_100s.msa
#FORMAT      : EMSA/MAS Spectral Data File
#VERSION     : 1.0
#TITLE       : Bruker Nano spectrum Acquisition
#DATE        : 23-AUG-2019
#TIME        : 00:17
#OWNER       : Bruker Nano
#NPOINTS     : 4096
#NCOLUMNS    : 1
#XUNITS      : eV
#YUNITS      : counts
#DATATYPE    : Y
#XPERCHAN    : 5.00257
#OFFSET      : -482.8305
#BEAMKV      : 15
#SIGNALTYPE  : EDS
#ELEVANGLE   : 40
#AZIMANGLE   : 45
#LIVETIME    : 100
#REALTIME    : 105.866
#PROBECUR    : 10
#TAUWIND     : 0
#TDEADLYR    : 0
#TACTLYR     : 0.045
#TALWIND     : 0.004
#CHOFFSET    : 0.0
#XLABEL      : Energy (eV)
#YLABEL      : Counts
#EDSDET      : SDUTW
##DET_HASH   : c6370f9e-cc72-7559-f57e-203d75c8942b
##CALIB_HASH : fcf71094-1a10-2882-685e-00197fff5925
##SAMPLE     : <BulkSample id="1">\n<mOrientation id="2">\n<double>0.0</double>\n<double>0.0</double>\n<double>-1.0</double>\n</mOrientation>\n</BulkSample>
#SPECTRUM    :
0,
0,
0,
0,
0,
0,
0,
0,
0,
0,
0,
0,
0,
0,
0,
0,
0,
0,
0,
2,
4,
3,
4,
6,
8,
7,
6,
60,
763,
5614,
23456,
52908,
64186,
42613,
15234,
3031,
300,
25,
0,
0,
9,
143,
151,
136,
115,
129,
143,
329,
859,
1733,
2462,
2365,
1577,
690,
245,
127,
185,
255,
256,
269,
185,
190,
235,
385,
870,
1760,
2719,
3037,
2513,
1593,
854,
597,
610,
768,
691,
756,
1027,
1756,
2605,
3141,
2840,
1909,
1029,
533,
348,
273,
296,
283,
300,
325,
346,
285,
283,
305,
361,
356,
286,
289,
315,
292,
313,
307,
323,
304,
295,
313,
307,
313,
270,
292,
357,
342,
326,
359,
344,
347,
375,
392,
384,
398,
412,
363,
387,
359,
406,
446,
408,
433,
446,
439,
439,
463,
439,
451,
420,
428,
432,
446,
406,
461,
452,
442,
446,
435,
437,
507,
502,
512,
516,
529,
525,
524,
533,
484,
522,
510,
503,
523,
521,
541,
592,
534,
612,
600,
627,
623,
619,
653,
661,
654,
704,
712,
674,
697,
697,
691,
766,
885,
1255,
2080,
3899,
8111,
15524,
26945,
40035,
51060,
56331,
52575,
41699,
28234,
17006,
9020,
4981,
3630,
3734,
4221,
4474,
4489,
3765,
2820,
1831,
1211,
683,
473,
345,
315,
289,
312,
296,
283,
291,
274,
291,
282,
262,
292,
292,
282,
304,
319,
333,
288,
290,
316,
300,
348,
334,
346,
306,
313,
336,
328,
334,
323,
354,
330,
348,
355,
345,
338,
361,
355,
337,
329,
354,
345,
326,
383,
352,
358,
365,
373,
357,
370,
371,
366,
384,
413,
381,
379,
408,
386,
411,
402,
384,
389,
410,
408,
404,
390,
403,
425,
438,
440,
439,
450,
434,
447,
450,
455,
471,
443,
460,
427,
460,
426,
457,
462,
437,
469,
439,
490,
476,
458,
474,
493,
490,
459,
509,
470,
505,
465,
492,
458,
475,
479,
502,
477,
491,
510,
519,
494,
525,
486,
492,
518,
521,
510,
528,
504,
521,
527,
539,
503,
492,
520,
507,
561,
514,
525,
573,
553,
539,
566,
547,
566,
540,
559,
543,
525,
535,
527,
532,
507,
535,
566,
554,
564,
569,
589,
582,
564,
543,
580,
557,
570,
546,
558,
585,
617,
580,
557,
605,
593,
609,
582,
564,
570,
607,
581,
601,
583,
635,
590,
586,
618,
557,
587,
569,
596,
595,
582,
615,
597,
620,
657,
610,
608,
585,
614,
608,
617,
560,
575,
628,
614,
598,
598,
584,
596,
616,
651,
582,
590,
574,
617,
591,
630,
582,
597,
586,
621,
570,
603,
546,
611,
592,
608,
577,
597,
599,
553,
626,
625,
596,
632,
590,
610,
609,
602,
592,
561,
623,
599,
623,
636,
600,
588,
648,
620,
650,
624,
684,
672,
652,
767,
738,
878,
1077,
1482,
2372,
3474,
5703,
8165,
11454,
15610,
19030,
22290,
24286,
24837,
23498,
20469,
17022,
13204,
9336,
6538,
4208,
2611,
1676,
1151,
884,
690,
619,
637,
664,
585,
604,
593,
653,
566,
589,
607,
608,
598,
629,
594,
662,
652,
613,
673,
675,
682,
770,
884,
1008,
1216,
1572,
1943,
2357,
2862,
3294,
3685,
3805,
3665,
3597,
3126,
2603,
2090,
1549,
1217,
887,
654,
538,
385,
338,
303,
282,
343,
297,
312,
299,
284,
309,
306,
290,
295,
302,
289,
281,
294,
280,
290,
319,
338,
331,
294,
313,
331,
300,
299,
283,
280,
283,
301,
288,
291,
270,
292,
285,
322,
284,
308,
328,
325,
327,
296,
268,
277,
303,
258,
275,
303,
313,
296,
339,
285,
304,
328,
326,
305,
302,
313,
297,
318,
295,
273,
298,
297,
279,
299,
293,
301,
338,
300,
331,
293,
308,
310,
280,
298,
294,
292,
265,
263,
274,
283,
281,
320,
274,
312,
291,
294,
283,
273,
298,
289,
272,
276,
268,
268,
287,
280,
274,
284,
267,
282,
273,
275,
281,
280,
279,
275,
274,
285,
287,
281,
276,
271,
287,
281,
266,
286,
273,
274,
278,
274,
278,
279,
278,
267,
288,
278,
266,
263,
269,
275,
265,
258,
277,
260,
287,
268,
269,
260,
297,
253,
246,
255,
253,
252,
262,
240,
242,
252,
276,
262,
249,
253,
234,
264,
262,
258,
285,
246,
235,
275,
214,
266,
236,
233,
239,
245,
241,
245,
262,
242,
230,
222,
249,
236,
260,
235,
233,
232,
235,
265,
214,
226,
223,
225,
233,
212,
231,
251,
246,
251,
199,
228,
252,
227,
199,
213,
223,
230,
228,
230,
235,
220,
218,
237,
210,
224,
208,
230,
211,
222,
195,
215,
203,
222,
193,
200,
210,
204,
207,
183,
204,
230,
197,
220,
186,
191,
209,
192,
191,
209,
197,
171,
203,
204,
202,
184,
192,
199,
177,
175,
170,
179,
193,
193,
197,
177,
198,
197,
175,
180,
178,
205,
165,
165,
178,
183,
179,
145,
177,
167,
168,
166,
181,
145,
200,
182,
190,
172,
142,
151,
157,
176,
154,
168,
146,
134,
164,
152,
163,
157,
173,
164,
154,
171,
150,
139,
158,
163,
153,
132,
141,
162,
146,
148,
145,
140,
139,
146,
138,
144,
123,
158,
145,
138,
138,
131,
138,
136,
138,
140,
135,
146,
137,
115,
155,
138,
133,
144,
116,
145,
101,
139,
147,
112,
111,
120,
117,
127,
136,
109,
127,
116,
104,
128,
121,
118,
114,
131,
111,
110,
100,
117,
113,
118,
111,
91,
104,
110,
103,
100,
88,
119,
102,
89,
91,
81,
97,
91,
85,
96,
79,
95,
75,
71,
84,
83,
84,
107,
67,
71,
81,
76,
100,
83,
91,
86,
80,
86,
93,
69,
89,
82,
78,
70,
79,
75,
86,
73,
64,
61,
71,
64,
83,
63,
78,
70,
62,
80,
66,
67,
72,
61,
70,
55,
67,
59,
63,
64,
74,
60,
57,
55,
54,
65,
56,
62,
51,
59,
58,
52,
48,
53,
55,
51,
56,
53,
50,
57,
48,
52,
41,
51,
44,
39,
46,
55,
42,
48,
56,
50,
26,
42,
47,
37,
25,
48,
56,
44,
48,
28,
36,
37,
30,
26,
42,
27,
35,
36,
43,
36,
43,
41,
25,
24,
32,
27,
28,
25,
23,
33,
26,
20,
24,
24,
31,
27,
19,
25,
17,
17,
20,
21,
26,
19,
23,
26,
15,
16,
8,
12,
12,
17,
12,
11,
7,
10,
13,
15,
21,
14,
5,
8,
14,
14,
3,
8,
7,
7,
3,
3,
4,
3,
1,
7,
5,
5,
2,
5,
5,
6,
2,
3,
1,
0,
0,
0,
1,
0,
0,
0,
0,
0,
0,
0,
0,
0,
0,
0,
0,
1,
0,
0,
0,
1,
0,
0,
1,
0,
1,
0,
0,
0,
1,
0,
0,
1,
1,
0,
0,
0,
0,
0,
0,
0,
0,
1,
0,
0,
0,
0,
0,
0,
0,
0,
0,
0,
1,
0,
0,
0,
0,
0,
0,
0,
0,
0,
0,
0,
0,
0,
0,
0,
0,
1,
0,
0,
0,
0,
0,
0,
0,
0,
0,
1,
0,
0,
0,
0,
1,
0,
0,
0,
0,
0,
0,
0,
0,
0,
0,
0,
0,
1,
0,
0,
0,
1,
0,
0,
0,
0,
0,
1,
0,
0,
0,
0,
0,
0,
0,
1,
0,
0,
0,
0,
0,
0,
0,
0,
0,
0,
0,
0,
0,
0,
0,
0,
1,
0,
0,
1,
0,
0,
0,
0,
0,
1,
0,
1,
0,
0,
0,
0,
0,
1,
2,
1,
0,
0,
0,
0,
0,
0,
1,
0,
0,
1,
0,
0,
1,
0,
0,
0,
0,
0,
1,
0,
0,
0,
0,
1,
1,
0,
0,
0,
0,
0,
0,
0,
0,
2,
0,
1,
1,
0,
0,
1,
1,
0,
0,
0,
2,
2,
1,
1,
0,
0,
0,
0,
0,
0,
1,
0,
0,
1,
1,
0,
0,
0,
0,
0,
0,
0,
1,
0,
0,
0,
0,
1,
0,
0,
0,
0,
0,
1,
0,
1,
0,
0,
0,
0,
0,
0,
0,
0,
0,
0,
0,
0,
0,
0,
0,
0,
1,
1,
0,
0,
0,
0,
0,
0,
0,
0,
0,
0,
0,
0,
0,
1,
0,
0,
0,
0,
0,
0,
0,
0,
0,
0,
0,
0,
0,
0,
0,
0,
0,
1,
0,
0,
0,
1,
0,
0,
1,
1,
0,
0,
0,
0,
0,
0,
0,
0,
0,
0,
0,
0,
0,
0,
0,
0,
0,
0,
0,
0,
0,
0,
0,
0,
0,
1,
0,
0,
0,
0,
0,
0,
0,
0,
0,
0,
#ENDOFDATA   :