File: NeXLSpectrum/Pyrite fragments/Pyrite_1_F3_15kV10nA130kHz_114kHz_100s.msa
#FORMAT      : EMSA/MAS Spectral Data File
#VERSION     : 1.0
#TITLE       : Bruker Nano spectrum Acquisition
#DATE        : 23-AUG-2019
#TIME        : 11:19
#OWNER       : Bruker Nano
#NPOINTS     : 4096
#NCOLUMNS    : 1
#XUNITS      : eV
#YUNITS      : counts
#DATATYPE    : Y
#XPERCHAN    : 5.00257
#OFFSET      : -482.8305
#BEAMKV      : 15
#SIGNALTYPE  : EDS
#ELEVANGLE   : 40
#AZIMANGLE   : 45
#LIVETIME    : 100
#REALTIME    : 127.239
#PROBECUR    : 10
#TAUWIND     : 0
#TDEADLYR    : 0
#TACTLYR     : 0.045
#TALWIND     : 0.004
#CHOFFSET    : 0.0
#XLABEL      : Energy (eV)
#YLABEL      : Counts
#EDSDET      : SDUTW
##DET_HASH   : c6370f9e-cc72-7559-f57e-203d75c8942b
##CALIB_HASH : fcf71094-1a10-2882-685e-00197fff5925
##SAMPLE     : <BulkSample id="1">\n<mOrientation id="2">\n<double>0.0</double>\n<double>0.0</double>\n<double>-1.0</double>\n</mOrientation>\n</BulkSample>
#SPECTRUM    :
0,
0,
0,
0,
0,
0,
0,
0,
0,
0,
0,
0,
0,
0,
0,
0,
0,
1,
3,
13,
19,
27,
33,
39,
28,
36,
39,
262,
3082,
23189,
94887,
210829,
255652,
168460,
60948,
12394,
1576,
236,
117,
0,
362,
3059,
3495,
2877,
1874,
1220,
1274,
2150,
4694,
8832,
12497,
11846,
7797,
3660,
1583,
1088,
1144,
1344,
1496,
1453,
1451,
1530,
1809,
2155,
2996,
3993,
5122,
5705,
4769,
4778,
5726,
7977,
10935,
12795,
12465,
12733,
17687,
29685,
45655,
53583,
46692,
31485,
16719,
8481,
5190,
4302,
4026,
3896,
3986,
3930,
3809,
3548,
3250,
3341,
3398,
3406,
3393,
3422,
3460,
3516,
3560,
3612,
3643,
3690,
3811,
3646,
3942,
3860,
3966,
4066,
3890,
4113,
4006,
4127,
4206,
4207,
4122,
4294,
4141,
4331,
4268,
4308,
4317,
4395,
4374,
4386,
4339,
4435,
4461,
4461,
4425,
4555,
4529,
4515,
4542,
4336,
4203,
4048,
4245,
4110,
4203,
4180,
4175,
4176,
4232,
4300,
4232,
4276,
4339,
4319,
4315,
4317,
4280,
4293,
4302,
4088,
4239,
4131,
4031,
4141,
4203,
4252,
4207,
4250,
4290,
4300,
4272,
4371,
4364,
4382,
4399,
4295,
4304,
4254,
4321,
4279,
4361,
5133,
6403,
10408,
19659,
38743,
74031,
125060,
186804,
238400,
260609,
242444,
192785,
131012,
77706,
41526,
23270,
16674,
16724,
18951,
20438,
20402,
17798,
13983,
10120,
6928,
4798,
3636,
3014,
2651,
2533,
2451,
2440,
2390,
2362,
2331,
2368,
2327,
2290,
2257,
2312,
2284,
2279,
2269,
2283,
2320,
2310,
2262,
2279,
2276,
2248,
2244,
2211,
2195,
2180,
2152,
2147,
2190,
2132,
2160,
2137,
2124,
2097,
2110,
2096,
2091,
2131,
2038,
2096,
2052,
2124,
2084,
2059,
2048,
2003,
1994,
2035,
1961,
1972,
2009,
1962,
1993,
1937,
1972,
1938,
1923,
1879,
1885,
1833,
1949,
1882,
1888,
1935,
1892,
1928,
1905,
1826,
1899,
1802,
1802,
1825,
1873,
1817,
1771,
1787,
1801,
1764,
1693,
1748,
1757,
1742,
1653,
1733,
1774,
1762,
1711,
1716,
1725,
1656,
1673,
1665,
1687,
1664,
1634,
1632,
1593,
1679,
1678,
1639,
1586,
1602,
1653,
1590,
1544,
1566,
1612,
1588,
1580,
1529,
1564,
1584,
1536,
1512,
1565,
1546,
1496,
1488,
1529,
1467,
1517,
1459,
1440,
1434,
1449,
1415,
1454,
1410,
1359,
1377,
1366,
1326,
1302,
1276,
1259,
1236,
1210,
1186,
1225,
1254,
1236,
1222,
1251,
1246,
1219,
1261,
1299,
1265,
1297,
1280,
1314,
1294,
1240,
1257,
1286,
1278,
1345,
1229,
1327,
1223,
1225,
1256,
1269,
1248,
1229,
1255,
1250,
1210,
1248,
1234,
1142,
1215,
1165,
1119,
1192,
1218,
1164,
1185,
1161,
1121,
1154,
1131,
1160,
1169,
1150,
1158,
1112,
1138,
1141,
1126,
1115,
1145,
1054,
1147,
1057,
1109,
1103,
1059,
1053,
1029,
1002,
1036,
1087,
1044,
1019,
1050,
1054,
1045,
987,
1003,
1061,
1024,
995,
1020,
1001,
990,
1007,
904,
1002,
942,
978,
958,
1027,
1011,
966,
996,
951,
908,
982,
975,
986,
963,
983,
992,
965,
1017,
959,
986,
1046,
1042,
1104,
1091,
1357,
1597,
2212,
3366,
5110,
7885,
11679,
16103,
21417,
27151,
30976,
34580,
34651,
32382,
28925,
23684,
18464,
13240,
9064,
5917,
3874,
2405,
1716,
1266,
1021,
876,
929,
890,
863,
815,
860,
877,
868,
827,
818,
788,
806,
811,
804,
831,
813,
815,
807,
860,
953,
950,
1084,
1338,
1541,
1975,
2563,
3063,
3614,
4370,
4800,
4992,
4859,
4579,
4063,
3472,
2860,
2275,
1727,
1388,
1098,
900,
789,
752,
722,
709,
687,
672,
662,
643,
669,
642,
628,
637,
662,
699,
711,
673,
740,
698,
726,
715,
704,
678,
635,
644,
600,
608,
572,
586,
600,
566,
549,
557,
548,
572,
534,
551,
600,
560,
533,
533,
565,
508,
561,
527,
510,
527,
542,
506,
568,
525,
529,
532,
516,
519,
543,
531,
561,
534,
543,
535,
513,
490,
588,
536,
522,
530,
576,
502,
559,
561,
505,
487,
513,
547,
485,
510,
467,
504,
445,
461,
478,
473,
522,
443,
460,
457,
472,
468,
462,
444,
428,
460,
435,
456,
433,
437,
426,
422,
422,
432,
441,
429,
420,
422,
418,
404,
405,
413,
409,
409,
410,
436,
406,
403,
432,
411,
391,
400,
411,
422,
444,
429,
412,
399,
404,
397,
383,
365,
426,
373,
372,
404,
410,
387,
406,
369,
378,
365,
353,
356,
386,
360,
358,
352,
355,
375,
362,
363,
347,
350,
360,
346,
363,
346,
349,
339,
356,
372,
332,
349,
336,
352,
358,
311,
356,
320,
345,
337,
322,
314,
314,
331,
342,
319,
349,
342,
329,
311,
335,
306,
308,
301,
307,
300,
322,
288,
307,
304,
289,
307,
270,
297,
342,
277,
298,
306,
286,
288,
291,
278,
308,
291,
275,
295,
323,
278,
296,
290,
274,
301,
285,
273,
296,
241,
259,
261,
261,
231,
271,
239,
269,
248,
267,
205,
239,
278,
240,
239,
250,
257,
257,
283,
231,
255,
265,
247,
237,
258,
259,
233,
259,
222,
226,
235,
225,
231,
231,
197,
227,
228,
231,
227,
214,
231,
206,
200,
214,
201,
219,
216,
204,
198,
227,
190,
214,
189,
210,
206,
207,
211,
204,
210,
200,
179,
223,
216,
198,
198,
210,
181,
204,
174,
170,
189,
188,
174,
183,
182,
191,
172,
175,
182,
186,
165,
149,
186,
198,
153,
153,
172,
178,
178,
161,
157,
155,
157,
150,
163,
165,
174,
174,
148,
160,
161,
150,
133,
127,
157,
125,
129,
142,
143,
138,
131,
140,
127,
131,
146,
107,
138,
151,
127,
148,
139,
131,
124,
132,
149,
113,
128,
118,
115,
120,
147,
117,
116,
130,
115,
114,
110,
109,
106,
118,
119,
130,
111,
127,
117,
101,
102,
115,
98,
89,
96,
93,
90,
111,
102,
109,
112,
106,
98,
91,
104,
93,
101,
98,
104,
102,
98,
90,
95,
89,
105,
74,
86,
82,
87,
81,
92,
77,
74,
77,
72,
78,
83,
75,
87,
76,
74,
76,
67,
71,
66,
70,
66,
61,
71,
59,
54,
59,
53,
66,
53,
47,
56,
56,
58,
62,
54,
77,
66,
57,
62,
66,
56,
44,
53,
56,
48,
70,
59,
40,
51,
54,
49,
52,
55,
40,
49,
43,
54,
47,
47,
47,
39,
39,
39,
39,
42,
40,
31,
37,
34,
30,
42,
31,
37,
40,
40,
33,
30,
35,
26,
39,
23,
19,
28,
27,
39,
38,
18,
26,
30,
27,
21,
16,
18,
13,
16,
19,
18,
15,
17,
21,
18,
11,
9,
18,
18,
13,
17,
16,
23,
13,
12,
14,
19,
12,
11,
5,
7,
9,
5,
10,
6,
10,
11,
9,
8,
5,
8,
13,
1,
3,
6,
3,
1,
6,
0,
3,
1,
2,
1,
0,
3,
0,
0,
0,
2,
0,
0,
0,
0,
0,
0,
2,
0,
0,
3,
0,
0,
0,
0,
0,
0,
0,
0,
0,
0,
1,
0,
0,
5,
1,
0,
0,
0,
0,
0,
0,
0,
1,
0,
0,
0,
0,
0,
0,
1,
0,
0,
0,
0,
0,
0,
0,
1,
0,
0,
0,
0,
0,
0,
0,
0,
0,
0,
1,
0,
0,
0,
0,
1,
0,
1,
0,
1,
1,
0,
0,
0,
0,
0,
0,
0,
3,
0,
0,
0,
0,
0,
3,
0,
0,
0,
0,
0,
0,
0,
0,
0,
1,
0,
0,
0,
0,
0,
0,
0,
0,
1,
0,
0,
0,
0,
0,
0,
0,
0,
2,
1,
1,
0,
0,
0,
0,
0,
0,
0,
1,
0,
0,
0,
2,
0,
0,
0,
0,
0,
1,
1,
0,
0,
1,
0,
1,
0,
0,
0,
0,
0,
0,
0,
1,
0,
0,
0,
0,
0,
0,
0,
0,
0,
0,
0,
0,
0,
0,
0,
0,
1,
0,
0,
0,
0,
0,
0,
0,
0,
0,
0,
0,
0,
0,
0,
0,
0,
0,
0,
1,
0,
1,
0,
0,
0,
0,
1,
0,
0,
0,
0,
0,
0,
0,
0,
0,
0,
1,
0,
0,
0,
0,
0,
0,
0,
0,
0,
0,
1,
0,
0,
0,
0,
0,
0,
0,
0,
0,
0,
0,
0,
0,
0,
0,
0,
0,
0,
0,
0,
0,
0,
0,
0,
0,
0,
0,
1,
0,
0,
0,
0,
0,
0,
0,
0,
0,
0,
0,
0,
0,
0,
0,
0,
0,
0,
0,
0,
0,
0,
0,
0,
0,
0,
0,
0,
0,
0,
0,
0,
1,
2,
0,
0,
0,
1,
0,
0,
1,
0,
0,
0,
0,
0,
0,
0,
0,
0,
0,
0,
1,
0,
0,
0,
0,
1,
0,
0,
0,
0,
0,
1,
0,
0,
1,
0,
0,
0,
1,
0,
0,
1,
0,
0,
0,
0,
0,
0,
0,
1,
0,
0,
0,
#ENDOFDATA   :