File: NeXLSpectrum/Pyrite fragments/Pyrite_1_H2_15kV10nA130kHz_33kHz_100s.msa
#FORMAT      : EMSA/MAS Spectral Data File
#VERSION     : 1.0
#TITLE       : Bruker Nano spectrum Acquisition
#DATE        : 23-AUG-2019
#TIME        : 00:15
#OWNER       : Bruker Nano
#NPOINTS     : 4096
#NCOLUMNS    : 1
#XUNITS      : eV
#YUNITS      : counts
#DATATYPE    : Y
#XPERCHAN    : 5.00257
#OFFSET      : -482.8305
#BEAMKV      : 15
#SIGNALTYPE  : EDS
#ELEVANGLE   : 40
#AZIMANGLE   : 45
#LIVETIME    : 100
#REALTIME    : 106.253
#PROBECUR    : 10
#TAUWIND     : 0
#TDEADLYR    : 0
#TACTLYR     : 0.045
#TALWIND     : 0.004
#CHOFFSET    : 0.0
#XLABEL      : Energy (eV)
#YLABEL      : Counts
#EDSDET      : SDUTW
##DET_HASH   : c6370f9e-cc72-7559-f57e-203d75c8942b
##CALIB_HASH : fcf71094-1a10-2882-685e-00197fff5925
##SAMPLE     : <BulkSample id="1">\n<mOrientation id="2">\n<double>0.0</double>\n<double>0.0</double>\n<double>-1.0</double>\n</mOrientation>\n</BulkSample>
#SPECTRUM    :
0,
0,
0,
0,
0,
0,
0,
0,
0,
0,
0,
0,
0,
0,
0,
0,
0,
0,
1,
1,
4,
4,
4,
3,
4,
3,
8,
68,
768,
5804,
25093,
55943,
68484,
44830,
16113,
3291,
383,
31,
4,
0,
7,
183,
168,
174,
137,
118,
169,
345,
800,
1674,
2455,
2361,
1484,
665,
246,
182,
221,
342,
431,
375,
265,
232,
275,
520,
1110,
2242,
3495,
3927,
3231,
2141,
987,
674,
698,
785,
714,
748,
1081,
1804,
2779,
3381,
3046,
2037,
1141,
629,
362,
295,
288,
334,
315,
332,
306,
324,
319,
339,
341,
377,
366,
347,
266,
322,
360,
354,
325,
365,
329,
324,
326,
346,
336,
359,
375,
397,
383,
430,
429,
411,
439,
469,
409,
421,
402,
429,
429,
443,
427,
444,
465,
466,
487,
522,
544,
486,
515,
521,
487,
482,
534,
496,
518,
525,
485,
495,
558,
518,
574,
585,
577,
577,
621,
640,
644,
631,
590,
610,
616,
642,
594,
641,
608,
638,
637,
731,
674,
705,
706,
725,
800,
813,
795,
762,
790,
786,
762,
796,
745,
794,
919,
1032,
1349,
2225,
4459,
9107,
17338,
29947,
44569,
57217,
62288,
58506,
46284,
31588,
18529,
9871,
5496,
3904,
4118,
4668,
5084,
4897,
4178,
3067,
2101,
1314,
794,
526,
404,
367,
358,
349,
353,
348,
333,
354,
321,
319,
328,
355,
376,
365,
345,
372,
359,
357,
374,
352,
358,
367,
366,
378,
356,
373,
410,
391,
385,
392,
404,
383,
407,
398,
421,
393,
399,
418,
414,
401,
410,
456,
418,
404,
413,
430,
414,
438,
438,
454,
429,
443,
452,
441,
441,
460,
433,
449,
450,
429,
471,
457,
447,
467,
496,
485,
476,
453,
470,
507,
476,
466,
462,
453,
468,
491,
485,
470,
522,
498,
499,
453,
500,
495,
491,
489,
483,
523,
508,
495,
486,
492,
510,
486,
557,
490,
480,
510,
532,
521,
539,
521,
536,
522,
557,
523,
557,
572,
509,
542,
517,
567,
555,
544,
550,
548,
550,
549,
572,
569,
537,
541,
538,
545,
570,
561,
548,
537,
596,
575,
568,
563,
554,
544,
549,
537,
566,
528,
527,
531,
538,
527,
560,
558,
586,
563,
575,
598,
563,
583,
583,
568,
563,
597,
571,
591,
585,
603,
607,
604,
635,
628,
592,
588,
629,
588,
633,
592,
587,
625,
593,
579,
590,
607,
627,
626,
647,
594,
605,
597,
610,
580,
633,
633,
614,
615,
598,
632,
649,
591,
585,
644,
599,
624,
597,
619,
609,
608,
558,
615,
571,
603,
630,
594,
577,
606,
637,
567,
610,
619,
598,
587,
626,
628,
631,
614,
591,
598,
592,
590,
567,
601,
610,
608,
629,
605,
642,
632,
644,
594,
620,
591,
639,
600,
630,
602,
649,
662,
651,
686,
677,
707,
796,
853,
1105,
1547,
2304,
3493,
5551,
8063,
11410,
15289,
19256,
22591,
24427,
24704,
23040,
20387,
16967,
13256,
9485,
6492,
4284,
2612,
1747,
1143,
889,
716,
670,
604,
637,
615,
575,
596,
607,
587,
573,
630,
547,
592,
591,
590,
623,
644,
646,
639,
636,
701,
775,
872,
1015,
1231,
1614,
1870,
2342,
2867,
3330,
3542,
3809,
3736,
3540,
3060,
2613,
2109,
1630,
1182,
887,
602,
521,
447,
344,
352,
314,
326,
306,
315,
309,
282,
283,
288,
273,
308,
323,
307,
306,
311,
305,
297,
315,
295,
305,
305,
338,
309,
314,
296,
304,
330,
318,
309,
291,
316,
324,
293,
313,
269,
298,
311,
278,
311,
321,
290,
291,
274,
279,
293,
300,
276,
361,
289,
294,
331,
274,
306,
334,
343,
322,
303,
316,
307,
319,
294,
314,
334,
322,
261,
331,
302,
276,
270,
292,
287,
293,
272,
291,
291,
298,
286,
294,
264,
291,
279,
320,
292,
293,
320,
291,
284,
284,
263,
280,
299,
277,
263,
285,
261,
261,
281,
272,
284,
270,
281,
277,
272,
269,
270,
277,
288,
279,
298,
267,
265,
295,
286,
289,
274,
263,
280,
278,
275,
290,
294,
285,
267,
270,
272,
270,
265,
252,
261,
249,
297,
260,
250,
286,
263,
271,
274,
251,
248,
296,
240,
249,
237,
257,
291,
258,
233,
255,
256,
242,
274,
244,
262,
250,
246,
268,
257,
252,
263,
242,
241,
242,
236,
253,
257,
251,
251,
254,
244,
256,
239,
231,
212,
229,
243,
253,
251,
237,
233,
223,
246,
223,
244,
228,
192,
250,
227,
242,
217,
218,
221,
223,
230,
238,
237,
211,
250,
209,
226,
223,
221,
223,
230,
218,
219,
213,
213,
217,
219,
210,
204,
231,
199,
214,
212,
195,
218,
217,
234,
197,
193,
215,
214,
219,
197,
199,
197,
212,
198,
206,
189,
217,
196,
213,
170,
188,
189,
217,
182,
197,
181,
191,
188,
199,
172,
197,
165,
173,
184,
201,
191,
178,
182,
173,
159,
174,
174,
182,
192,
168,
173,
170,
164,
164,
184,
173,
185,
185,
171,
156,
153,
153,
171,
177,
166,
184,
172,
153,
141,
161,
166,
156,
143,
138,
159,
152,
161,
170,
163,
148,
156,
150,
148,
147,
142,
153,
138,
126,
120,
146,
136,
137,
135,
125,
135,
149,
146,
141,
134,
149,
139,
129,
121,
131,
134,
110,
116,
135,
103,
121,
128,
123,
127,
125,
130,
120,
118,
129,
115,
112,
120,
123,
130,
108,
116,
97,
118,
113,
116,
104,
101,
111,
119,
105,
101,
108,
113,
119,
110,
85,
105,
104,
93,
106,
99,
95,
112,
94,
118,
112,
109,
75,
98,
106,
90,
83,
97,
91,
93,
67,
75,
88,
77,
88,
79,
84,
81,
81,
83,
90,
86,
87,
79,
71,
98,
71,
75,
76,
67,
103,
70,
68,
89,
55,
72,
59,
79,
73,
73,
67,
63,
65,
72,
62,
50,
49,
64,
89,
66,
64,
62,
51,
59,
48,
54,
55,
44,
48,
51,
49,
52,
35,
49,
67,
51,
64,
41,
32,
49,
60,
38,
47,
46,
40,
38,
38,
34,
51,
45,
50,
44,
42,
51,
48,
41,
36,
33,
50,
28,
39,
35,
33,
34,
46,
42,
26,
37,
37,
27,
25,
25,
37,
30,
32,
37,
27,
30,
27,
35,
25,
24,
27,
31,
14,
16,
20,
19,
27,
25,
18,
17,
21,
20,
20,
14,
20,
18,
24,
16,
14,
15,
12,
8,
22,
20,
15,
16,
10,
8,
8,
8,
9,
13,
7,
3,
8,
5,
9,
8,
9,
2,
5,
5,
5,
8,
5,
3,
1,
2,
3,
2,
4,
1,
1,
0,
0,
0,
0,
0,
2,
0,
0,
0,
0,
1,
0,
0,
0,
0,
0,
0,
2,
0,
0,
0,
0,
0,
0,
1,
0,
0,
0,
0,
0,
0,
0,
0,
1,
0,
0,
0,
0,
0,
0,
1,
0,
0,
0,
0,
0,
0,
0,
1,
0,
0,
0,
0,
0,
0,
0,
0,
0,
0,
0,
0,
0,
0,
0,
0,
0,
0,
0,
0,
2,
0,
0,
0,
0,
0,
0,
0,
0,
0,
0,
0,
0,
0,
0,
0,
0,
0,
0,
0,
0,
0,
0,
0,
1,
0,
0,
0,
0,
0,
0,
0,
0,
2,
0,
0,
0,
0,
0,
0,
0,
1,
3,
0,
0,
0,
0,
0,
0,
0,
0,
0,
0,
0,
0,
0,
0,
0,
0,
0,
0,
1,
0,
0,
1,
0,
0,
0,
0,
0,
0,
0,
0,
0,
0,
0,
3,
1,
0,
0,
1,
0,
0,
3,
1,
0,
0,
1,
0,
1,
0,
0,
0,
0,
0,
0,
1,
0,
0,
2,
0,
0,
1,
0,
0,
1,
1,
0,
0,
0,
0,
0,
1,
0,
0,
0,
0,
1,
0,
0,
0,
0,
0,
1,
0,
0,
0,
0,
0,
1,
0,
0,
0,
0,
1,
0,
0,
0,
0,
0,
0,
0,
1,
1,
1,
0,
0,
0,
0,
0,
0,
0,
0,
1,
0,
0,
0,
0,
1,
0,
0,
0,
0,
1,
0,
1,
0,
0,
0,
0,
0,
0,
0,
0,
0,
1,
1,
1,
0,
1,
0,
0,
0,
0,
0,
2,
0,
0,
1,
1,
0,
0,
0,
0,
1,
0,
0,
2,
0,
0,
0,
0,
0,
0,
0,
0,
0,
0,
0,
0,
0,
2,
0,
0,
0,
0,
0,
0,
0,
0,
3,
0,
0,
0,
1,
0,
0,
0,
0,
0,
0,
0,
0,
0,
0,
0,
0,
1,
1,
0,
1,
0,
0,
0,
0,
0,
0,
0,
0,
0,
0,
1,
0,
0,
0,
0,
0,
0,
#ENDOFDATA   :