File: NeXLSpectrum/Pyrite fragments/Pyrite_1_E2_15kV10nA130kHz_95kHz_100s.msa
#FORMAT      : EMSA/MAS Spectral Data File
#VERSION     : 1.0
#TITLE       : Bruker Nano spectrum Acquisition
#DATE        : 23-AUG-2019
#TIME        : 11:08
#OWNER       : Bruker Nano
#NPOINTS     : 4096
#NCOLUMNS    : 1
#XUNITS      : eV
#YUNITS      : counts
#DATATYPE    : Y
#XPERCHAN    : 5.00257
#OFFSET      : -482.8305
#BEAMKV      : 15
#SIGNALTYPE  : EDS
#ELEVANGLE   : 40
#AZIMANGLE   : 45
#LIVETIME    : 100
#REALTIME    : 121.678
#PROBECUR    : 10
#TAUWIND     : 0
#TDEADLYR    : 0
#TACTLYR     : 0.045
#TALWIND     : 0.004
#CHOFFSET    : 0.0
#XLABEL      : Energy (eV)
#YLABEL      : Counts
#EDSDET      : SDUTW
##DET_HASH   : c6370f9e-cc72-7559-f57e-203d75c8942b
##CALIB_HASH : fcf71094-1a10-2882-685e-00197fff5925
##SAMPLE     : <BulkSample id="1">\n<mOrientation id="2">\n<double>0.0</double>\n<double>0.0</double>\n<double>-1.0</double>\n</mOrientation>\n</BulkSample>
#SPECTRUM    :
0,
0,
0,
0,
0,
0,
0,
0,
0,
0,
0,
0,
0,
0,
0,
0,
0,
1,
3,
7,
21,
27,
20,
28,
25,
21,
40,
199,
2373,
18404,
75701,
169110,
204429,
134943,
48943,
9760,
1151,
149,
51,
31,
116,
1204,
1289,
1214,
875,
630,
786,
1649,
3905,
7635,
10725,
10335,
6689,
2985,
1214,
830,
990,
1418,
1586,
1558,
1260,
1136,
1229,
1898,
3618,
6548,
9815,
10961,
9154,
6009,
4593,
4027,
5203,
5915,
5925,
6218,
8695,
15062,
22467,
25992,
23251,
15454,
8347,
4313,
2505,
2089,
1967,
1762,
1758,
1768,
1757,
1787,
1713,
1807,
1883,
1908,
1895,
1914,
1945,
1990,
2040,
2086,
2117,
2252,
2152,
2207,
2201,
2207,
2307,
2379,
2348,
2354,
2386,
2551,
2521,
2612,
2598,
2659,
2691,
2671,
2694,
2742,
2750,
2826,
2861,
2875,
2958,
2934,
3005,
3016,
3017,
3089,
3119,
3194,
3127,
3017,
2956,
3020,
3021,
2979,
3038,
2970,
2957,
3019,
3029,
3202,
3200,
3404,
3456,
3409,
3374,
3447,
3224,
3217,
3289,
3271,
3226,
3208,
3189,
3277,
3329,
3275,
3314,
3418,
3403,
3668,
3498,
3613,
3745,
3674,
3568,
3474,
3582,
3428,
3478,
3496,
3711,
4266,
5526,
8849,
16683,
33009,
63218,
108073,
160416,
206604,
224659,
209716,
166399,
112692,
67312,
35993,
20064,
14375,
14365,
16164,
17666,
17358,
15112,
11921,
8215,
5558,
3695,
2734,
2241,
2008,
1923,
1867,
1819,
1792,
1777,
1852,
1765,
1755,
1825,
1782,
1806,
1769,
1810,
1822,
1792,
1757,
1764,
1798,
1782,
1796,
1805,
1736,
1761,
1758,
1797,
1765,
1748,
1760,
1752,
1740,
1767,
1768,
1752,
1753,
1729,
1782,
1759,
1695,
1784,
1731,
1681,
1704,
1760,
1760,
1764,
1731,
1736,
1747,
1670,
1771,
1764,
1805,
1729,
1681,
1703,
1696,
1726,
1695,
1761,
1606,
1698,
1704,
1661,
1620,
1659,
1657,
1633,
1626,
1611,
1640,
1623,
1664,
1586,
1631,
1619,
1556,
1646,
1645,
1537,
1675,
1575,
1570,
1574,
1581,
1573,
1526,
1496,
1561,
1589,
1573,
1512,
1486,
1560,
1505,
1564,
1514,
1549,
1481,
1527,
1434,
1508,
1516,
1521,
1468,
1424,
1482,
1477,
1398,
1410,
1499,
1434,
1360,
1421,
1390,
1359,
1458,
1452,
1392,
1439,
1397,
1400,
1371,
1349,
1390,
1412,
1334,
1381,
1335,
1354,
1339,
1331,
1267,
1266,
1259,
1201,
1172,
1170,
1197,
1198,
1195,
1208,
1227,
1243,
1233,
1229,
1250,
1253,
1241,
1285,
1249,
1218,
1254,
1242,
1246,
1329,
1264,
1210,
1217,
1247,
1271,
1205,
1204,
1193,
1242,
1259,
1164,
1179,
1179,
1182,
1156,
1168,
1154,
1209,
1110,
1171,
1144,
1129,
1144,
1139,
1105,
1111,
1047,
1069,
1095,
1126,
1187,
1102,
1098,
1110,
1030,
1088,
1083,
1058,
991,
1030,
1001,
995,
1077,
1064,
1029,
1062,
1039,
986,
1053,
1050,
1060,
1000,
998,
1025,
969,
993,
948,
931,
965,
1013,
1017,
982,
960,
927,
1025,
964,
1013,
994,
1011,
932,
982,
910,
985,
941,
923,
910,
965,
950,
940,
911,
983,
974,
1067,
1052,
1063,
1167,
1305,
1632,
2121,
3183,
5082,
7782,
11418,
15990,
21399,
26498,
30936,
33469,
33930,
31927,
28059,
23175,
17944,
12905,
8800,
5719,
3709,
2398,
1723,
1261,
1005,
989,
816,
859,
836,
785,
799,
819,
805,
802,
804,
805,
835,
778,
831,
826,
840,
831,
879,
878,
911,
973,
1180,
1244,
1580,
1960,
2493,
3061,
3668,
4228,
4681,
4893,
4798,
4530,
3961,
3433,
2822,
2187,
1712,
1334,
1016,
862,
769,
665,
652,
623,
585,
571,
617,
587,
641,
576,
627,
589,
582,
598,
626,
579,
614,
616,
604,
616,
619,
633,
574,
568,
550,
556,
563,
597,
507,
535,
556,
535,
547,
531,
550,
541,
511,
540,
536,
515,
531,
566,
482,
540,
553,
552,
542,
560,
501,
523,
529,
509,
566,
504,
533,
591,
559,
494,
539,
515,
520,
477,
506,
477,
485,
491,
503,
541,
480,
521,
497,
470,
457,
475,
500,
489,
471,
503,
475,
497,
507,
440,
468,
473,
473,
450,
447,
499,
446,
421,
436,
469,
428,
435,
429,
431,
416,
416,
420,
432,
418,
422,
405,
411,
405,
417,
410,
403,
410,
398,
394,
380,
385,
396,
410,
404,
428,
398,
451,
409,
415,
422,
421,
424,
400,
403,
352,
374,
443,
394,
397,
436,
382,
385,
402,
373,
381,
367,
391,
369,
372,
369,
366,
362,
361,
378,
359,
357,
352,
372,
351,
345,
345,
359,
345,
339,
349,
338,
331,
319,
323,
338,
325,
356,
366,
319,
324,
324,
327,
317,
317,
304,
321,
307,
317,
293,
346,
309,
343,
314,
327,
303,
336,
321,
324,
312,
303,
302,
290,
312,
306,
280,
293,
324,
322,
279,
261,
279,
287,
279,
276,
259,
264,
289,
291,
268,
267,
276,
265,
251,
250,
305,
269,
294,
255,
288,
242,
234,
260,
239,
243,
226,
282,
244,
272,
251,
260,
245,
266,
234,
267,
239,
246,
222,
259,
262,
207,
243,
247,
231,
232,
251,
241,
233,
215,
203,
223,
183,
211,
194,
215,
189,
237,
236,
225,
215,
219,
204,
222,
196,
211,
220,
216,
197,
204,
183,
201,
208,
196,
186,
208,
193,
194,
193,
185,
197,
209,
195,
206,
188,
187,
149,
193,
190,
158,
177,
160,
204,
170,
151,
180,
178,
144,
158,
214,
163,
187,
161,
155,
157,
169,
157,
122,
154,
150,
152,
160,
141,
171,
154,
156,
164,
145,
140,
162,
139,
145,
157,
137,
133,
152,
154,
127,
132,
135,
129,
134,
144,
138,
137,
146,
140,
135,
127,
117,
127,
135,
137,
128,
131,
130,
113,
111,
108,
128,
125,
117,
123,
131,
98,
113,
127,
117,
95,
116,
105,
112,
103,
100,
125,
91,
108,
109,
101,
108,
107,
112,
94,
98,
83,
90,
89,
94,
94,
85,
90,
95,
90,
85,
84,
78,
93,
79,
83,
87,
80,
79,
81,
87,
75,
79,
78,
77,
80,
73,
78,
73,
74,
73,
73,
71,
70,
71,
73,
71,
67,
73,
65,
62,
60,
67,
56,
63,
58,
71,
70,
50,
44,
55,
47,
49,
63,
63,
51,
52,
53,
63,
54,
61,
48,
46,
57,
42,
49,
44,
53,
53,
47,
44,
41,
38,
44,
44,
33,
38,
39,
56,
39,
30,
42,
33,
39,
43,
28,
28,
33,
49,
35,
40,
37,
47,
39,
15,
30,
20,
38,
28,
19,
22,
33,
22,
29,
22,
20,
29,
24,
30,
22,
25,
15,
25,
22,
18,
18,
21,
17,
27,
17,
10,
18,
23,
12,
16,
7,
14,
10,
20,
15,
7,
14,
10,
12,
13,
4,
12,
11,
9,
5,
10,
5,
4,
5,
2,
1,
2,
6,
9,
7,
4,
0,
0,
6,
0,
0,
1,
0,
0,
0,
0,
0,
2,
0,
0,
0,
0,
0,
0,
0,
0,
0,
2,
0,
0,
0,
0,
2,
1,
0,
0,
0,
0,
0,
0,
0,
0,
0,
0,
5,
0,
0,
2,
0,
1,
0,
0,
0,
2,
0,
0,
0,
0,
0,
0,
0,
1,
0,
1,
0,
0,
0,
0,
0,
0,
0,
0,
1,
1,
1,
2,
0,
0,
0,
0,
3,
0,
0,
0,
0,
0,
0,
0,
0,
0,
1,
0,
0,
0,
0,
0,
0,
0,
0,
0,
0,
0,
0,
0,
0,
0,
0,
0,
0,
0,
0,
1,
0,
0,
0,
2,
0,
0,
0,
0,
0,
0,
0,
0,
0,
0,
0,
0,
1,
0,
0,
1,
0,
0,
0,
0,
0,
0,
2,
0,
0,
0,
2,
0,
2,
2,
0,
0,
0,
0,
0,
1,
2,
0,
0,
0,
0,
0,
0,
0,
0,
0,
0,
1,
0,
1,
0,
0,
0,
0,
0,
0,
0,
0,
0,
0,
0,
0,
0,
0,
0,
0,
0,
0,
0,
0,
0,
0,
0,
0,
0,
0,
0,
1,
0,
0,
0,
0,
0,
0,
0,
0,
0,
0,
0,
0,
0,
0,
0,
1,
0,
0,
0,
0,
0,
0,
0,
0,
0,
0,
0,
0,
0,
0,
0,
0,
0,
0,
0,
0,
0,
1,
0,
0,
0,
0,
0,
0,
0,
0,
0,
0,
0,
0,
0,
1,
0,
0,
0,
0,
0,
0,
0,
0,
0,
0,
0,
0,
0,
0,
0,
0,
0,
0,
0,
0,
0,
0,
0,
0,
1,
0,
0,
0,
0,
0,
0,
0,
2,
1,
0,
0,
0,
2,
0,
1,
0,
1,
1,
0,
0,
1,
0,
1,
1,
0,
1,
0,
0,
0,
0,
0,
0,
0,
1,
0,
1,
0,
0,
0,
0,
0,
0,
0,
0,
0,
0,
0,
0,
0,
0,
0,
0,
0,
0,
0,
0,
0,
0,
0,
0,
0,
0,
0,
0,
0,
1,
0,
0,
0,
#ENDOFDATA   :