File: NeXLSpectrum/Pyrite fragments/Pyrite_1_I3_15kV10nA130kHz_129kHz_100s.msa
#FORMAT      : EMSA/MAS Spectral Data File
#VERSION     : 1.0
#TITLE       : Bruker Nano spectrum Acquisition
#DATE        : 23-AUG-2019
#TIME        : 00:30
#OWNER       : Bruker Nano
#NPOINTS     : 4096
#NCOLUMNS    : 1
#XUNITS      : eV
#YUNITS      : counts
#DATATYPE    : Y
#XPERCHAN    : 5.00257
#OFFSET      : -482.8305
#BEAMKV      : 15
#SIGNALTYPE  : EDS
#ELEVANGLE   : 40
#AZIMANGLE   : 45
#LIVETIME    : 100
#REALTIME    : 131.601
#PROBECUR    : 10
#TAUWIND     : 0
#TDEADLYR    : 0
#TACTLYR     : 0.045
#TALWIND     : 0.004
#CHOFFSET    : 0.0
#XLABEL      : Energy (eV)
#YLABEL      : Counts
#EDSDET      : SDUTW
##DET_HASH   : c6370f9e-cc72-7559-f57e-203d75c8942b
##CALIB_HASH : fcf71094-1a10-2882-685e-00197fff5925
##SAMPLE     : <BulkSample id="1">\n<mOrientation id="2">\n<double>0.0</double>\n<double>0.0</double>\n<double>-1.0</double>\n</mOrientation>\n</BulkSample>
#SPECTRUM    :
0,
0,
0,
0,
0,
0,
0,
0,
0,
0,
0,
0,
0,
0,
0,
0,
1,
1,
4,
16,
21,
56,
51,
64,
63,
55,
62,
368,
4070,
31118,
126600,
281352,
339001,
224263,
81572,
16705,
2139,
363,
158,
51,
482,
3606,
4089,
3239,
2077,
1235,
978,
1183,
1728,
2466,
3090,
2797,
2047,
1286,
995,
1028,
1160,
1296,
1451,
1451,
1498,
1732,
1958,
2391,
2812,
3532,
3925,
4324,
4175,
4286,
6711,
9264,
13126,
15389,
15585,
15666,
21876,
37190,
55851,
65085,
57411,
38076,
20410,
10226,
6266,
5042,
4584,
4321,
4274,
4140,
4001,
3924,
3814,
3890,
3921,
4025,
3964,
4074,
4185,
4128,
4327,
4427,
4498,
4492,
4575,
4725,
4694,
4669,
4817,
4750,
4887,
5037,
4883,
4925,
4941,
5028,
5145,
4987,
5142,
5168,
5158,
5226,
5223,
5245,
5216,
5310,
5284,
5318,
5367,
5301,
5403,
5451,
5233,
5233,
5229,
5127,
5141,
5035,
5033,
4901,
4887,
4926,
4899,
4913,
4926,
5017,
5011,
4974,
5060,
5185,
5066,
5031,
5078,
5032,
4993,
4845,
4863,
4741,
4751,
4839,
4751,
4715,
4887,
4900,
4848,
4924,
4880,
5065,
4973,
5041,
4976,
4903,
4945,
4843,
4785,
4869,
5033,
5596,
7403,
11638,
21960,
43571,
82773,
141484,
209391,
268631,
292255,
272370,
216524,
147381,
87060,
46903,
26477,
19061,
18935,
21442,
23054,
22968,
20214,
15679,
11382,
7792,
5302,
4050,
3329,
2947,
2846,
2772,
2751,
2689,
2760,
2723,
2693,
2665,
2639,
2631,
2631,
2710,
2688,
2684,
2658,
2641,
2652,
2661,
2568,
2625,
2535,
2591,
2622,
2633,
2560,
2556,
2533,
2488,
2540,
2567,
2449,
2422,
2463,
2446,
2421,
2378,
2387,
2351,
2345,
2299,
2368,
2372,
2355,
2306,
2335,
2293,
2315,
2287,
2248,
2264,
2295,
2230,
2188,
2174,
2227,
2210,
2167,
2171,
2066,
2144,
2210,
2127,
2100,
2083,
2070,
2110,
2132,
2002,
2045,
2086,
2096,
2112,
2059,
1945,
2008,
1979,
2018,
2029,
1938,
1930,
1950,
1937,
1931,
1946,
1964,
1949,
1905,
1935,
1843,
1851,
1886,
1891,
1848,
1893,
1842,
1855,
1842,
1816,
1796,
1712,
1740,
1761,
1727,
1774,
1755,
1691,
1686,
1738,
1723,
1676,
1696,
1664,
1658,
1678,
1638,
1617,
1677,
1669,
1633,
1634,
1625,
1614,
1613,
1601,
1590,
1607,
1537,
1505,
1500,
1496,
1502,
1469,
1411,
1404,
1377,
1354,
1354,
1381,
1376,
1353,
1391,
1395,
1409,
1394,
1391,
1425,
1414,
1407,
1467,
1424,
1505,
1395,
1407,
1466,
1387,
1334,
1378,
1421,
1413,
1365,
1394,
1423,
1315,
1286,
1313,
1304,
1319,
1347,
1348,
1304,
1369,
1290,
1340,
1352,
1274,
1266,
1245,
1306,
1257,
1312,
1237,
1270,
1240,
1304,
1247,
1261,
1226,
1267,
1215,
1187,
1222,
1185,
1216,
1206,
1151,
1214,
1121,
1154,
1125,
1163,
1197,
1142,
1177,
1111,
1110,
1083,
1145,
1122,
1154,
1162,
1099,
1082,
1114,
1115,
1075,
1114,
1063,
1068,
1089,
1046,
1071,
1084,
1100,
1006,
1062,
1099,
1092,
1046,
1061,
1045,
1059,
1090,
1094,
1052,
1087,
1046,
1056,
1119,
1116,
1152,
1233,
1395,
1790,
2370,
3566,
5543,
8477,
12420,
17341,
23132,
28684,
33725,
36425,
37362,
34921,
31051,
25384,
19448,
14128,
9725,
6538,
4014,
2756,
1818,
1312,
1160,
1006,
1040,
957,
885,
909,
936,
862,
879,
905,
878,
871,
885,
927,
834,
918,
906,
906,
947,
926,
1014,
1056,
1188,
1355,
1746,
2121,
2702,
3385,
3996,
4619,
5072,
5359,
5243,
4906,
4385,
3763,
3094,
2453,
1889,
1484,
1162,
981,
862,
803,
738,
697,
641,
700,
673,
700,
696,
674,
671,
692,
687,
765,
753,
710,
687,
674,
732,
741,
686,
691,
667,
723,
620,
624,
671,
594,
614,
590,
604,
605,
649,
578,
626,
626,
619,
625,
615,
588,
602,
586,
549,
588,
595,
573,
626,
628,
589,
568,
617,
558,
591,
579,
599,
591,
590,
561,
584,
558,
557,
581,
580,
551,
582,
548,
592,
541,
570,
572,
526,
569,
552,
556,
520,
582,
514,
528,
560,
512,
536,
498,
541,
550,
512,
513,
498,
491,
491,
513,
485,
494,
480,
469,
481,
476,
479,
495,
450,
473,
471,
453,
477,
471,
462,
437,
452,
444,
443,
466,
440,
476,
493,
432,
424,
421,
435,
424,
428,
426,
431,
444,
446,
420,
457,
436,
401,
435,
440,
429,
419,
448,
446,
424,
401,
415,
430,
409,
414,
419,
378,
402,
408,
379,
395,
397,
374,
401,
379,
377,
383,
364,
376,
350,
365,
390,
359,
386,
386,
393,
357,
339,
360,
366,
371,
371,
376,
321,
325,
381,
340,
346,
365,
359,
351,
361,
331,
380,
384,
326,
353,
374,
334,
340,
354,
321,
321,
357,
349,
328,
332,
339,
353,
312,
319,
289,
310,
336,
312,
346,
350,
325,
288,
313,
304,
297,
292,
286,
308,
312,
328,
292,
270,
262,
291,
267,
287,
277,
300,
292,
275,
264,
260,
266,
277,
276,
264,
294,
256,
264,
270,
236,
256,
258,
240,
304,
264,
275,
225,
264,
220,
253,
238,
249,
245,
273,
232,
244,
228,
212,
210,
223,
242,
211,
242,
241,
230,
203,
223,
222,
224,
228,
260,
216,
245,
213,
227,
213,
175,
196,
221,
204,
190,
197,
197,
199,
170,
218,
181,
196,
201,
201,
166,
194,
178,
197,
192,
181,
200,
182,
200,
198,
164,
189,
165,
182,
172,
200,
187,
188,
170,
165,
179,
165,
174,
171,
182,
152,
158,
150,
134,
187,
148,
170,
157,
142,
154,
164,
155,
151,
150,
124,
155,
134,
151,
148,
126,
132,
143,
142,
126,
158,
179,
125,
130,
164,
133,
119,
140,
137,
125,
114,
113,
131,
127,
121,
112,
139,
121,
116,
137,
116,
141,
126,
108,
112,
100,
104,
135,
140,
115,
107,
111,
100,
110,
102,
132,
101,
100,
93,
85,
95,
100,
86,
105,
95,
96,
98,
86,
96,
90,
97,
110,
95,
91,
93,
84,
70,
103,
78,
64,
85,
85,
70,
72,
68,
71,
74,
74,
56,
78,
89,
59,
73,
71,
84,
72,
72,
62,
55,
54,
47,
71,
59,
58,
63,
73,
55,
54,
60,
67,
61,
63,
53,
60,
45,
58,
47,
46,
45,
55,
65,
55,
51,
57,
48,
40,
41,
42,
51,
66,
36,
53,
37,
38,
34,
34,
40,
43,
40,
43,
30,
36,
29,
40,
35,
39,
35,
50,
23,
45,
38,
37,
41,
31,
35,
26,
31,
22,
30,
23,
20,
32,
25,
18,
27,
24,
22,
27,
31,
21,
20,
18,
22,
21,
20,
26,
12,
16,
18,
11,
23,
15,
21,
12,
15,
17,
12,
17,
8,
9,
12,
8,
14,
7,
8,
0,
8,
9,
7,
8,
3,
5,
2,
5,
2,
3,
4,
2,
7,
0,
8,
0,
0,
0,
0,
1,
0,
0,
0,
0,
0,
0,
0,
0,
1,
0,
1,
0,
0,
1,
0,
0,
1,
0,
0,
0,
0,
0,
0,
0,
0,
0,
0,
0,
0,
0,
0,
0,
0,
0,
0,
0,
0,
0,
3,
0,
0,
1,
0,
0,
0,
0,
0,
0,
0,
2,
0,
0,
0,
0,
0,
0,
0,
1,
0,
0,
0,
0,
0,
0,
0,
1,
0,
0,
0,
1,
0,
0,
0,
1,
0,
0,
0,
0,
0,
0,
1,
1,
0,
1,
0,
0,
0,
1,
1,
1,
1,
0,
1,
0,
0,
0,
0,
2,
3,
0,
0,
0,
0,
0,
1,
0,
0,
0,
0,
0,
0,
0,
0,
0,
2,
0,
0,
0,
3,
0,
0,
1,
0,
0,
0,
0,
1,
0,
0,
0,
0,
0,
0,
0,
0,
0,
0,
0,
1,
0,
0,
2,
1,
0,
0,
0,
0,
2,
0,
0,
1,
0,
0,
0,
0,
1,
1,
0,
0,
0,
0,
0,
0,
0,
0,
0,
0,
0,
2,
0,
0,
0,
0,
0,
0,
0,
0,
0,
0,
0,
0,
0,
0,
0,
0,
0,
0,
0,
0,
0,
0,
0,
0,
0,
0,
0,
0,
0,
0,
0,
0,
0,
1,
0,
1,
0,
0,
0,
1,
0,
0,
0,
2,
0,
0,
0,
0,
0,
0,
0,
0,
0,
0,
0,
0,
0,
0,
0,
0,
0,
0,
0,
0,
1,
0,
0,
0,
0,
0,
0,
0,
0,
0,
0,
0,
0,
0,
0,
0,
0,
0,
0,
0,
0,
0,
0,
0,
0,
0,
1,
0,
0,
0,
0,
1,
0,
0,
0,
0,
0,
1,
0,
0,
0,
0,
0,
0,
0,
0,
0,
0,
0,
0,
0,
1,
0,
0,
0,
0,
0,
0,
0,
0,
2,
0,
0,
0,
0,
0,
0,
1,
0,
1,
0,
0,
0,
0,
0,
0,
1,
1,
0,
0,
0,
1,
0,
1,
1,
0,
0,
0,
0,
0,
1,
0,
0,
#ENDOFDATA   :