File: NeXLSpectrum/Pyrite fragments/Pyrite_1_B1_15kV10nA130kHz_133kHz_100s.msa
#FORMAT      : EMSA/MAS Spectral Data File
#VERSION     : 1.0
#TITLE       : Bruker Nano spectrum Acquisition
#DATE        : 23-AUG-2019
#TIME        : 10:37
#OWNER       : Bruker Nano
#NPOINTS     : 4096
#NCOLUMNS    : 1
#XUNITS      : eV
#YUNITS      : counts
#DATATYPE    : Y
#XPERCHAN    : 5.00257
#OFFSET      : -482.8305
#BEAMKV      : 15
#SIGNALTYPE  : EDS
#ELEVANGLE   : 40
#AZIMANGLE   : 45
#LIVETIME    : 100
#REALTIME    : 132.954
#PROBECUR    : 10
#TAUWIND     : 0
#TDEADLYR    : 0
#TACTLYR     : 0.045
#TALWIND     : 0.004
#CHOFFSET    : 0.0
#XLABEL      : Energy (eV)
#YLABEL      : Counts
#EDSDET      : SDUTW
##DET_HASH   : c6370f9e-cc72-7559-f57e-203d75c8942b
##CALIB_HASH : fcf71094-1a10-2882-685e-00197fff5925
##SAMPLE     : <BulkSample id="1">\n<mOrientation id="2">\n<double>0.0</double>\n<double>0.0</double>\n<double>-1.0</double>\n</mOrientation>\n</BulkSample>
#SPECTRUM    :
0,
0,
0,
0,
0,
0,
0,
0,
0,
0,
0,
0,
0,
0,
0,
0,
0,
2,
5,
21,
31,
56,
41,
57,
43,
49,
71,
412,
4215,
31156,
126676,
281707,
339023,
224440,
81295,
16676,
2193,
388,
103,
37,
540,
3889,
4344,
3651,
2354,
1423,
1202,
1429,
1963,
2791,
3378,
3157,
2148,
1391,
1191,
1293,
1637,
2029,
2215,
2263,
2095,
2070,
2457,
3099,
4503,
6808,
8960,
10075,
9037,
7818,
7992,
10634,
14181,
16309,
16424,
16675,
23008,
38878,
58997,
69701,
61398,
41096,
21814,
11071,
6878,
5603,
5011,
4861,
4634,
4583,
4463,
4359,
4296,
4338,
4396,
4494,
4496,
4459,
4612,
4769,
4911,
4791,
4885,
4884,
4996,
5074,
5024,
5154,
5185,
5208,
5261,
5264,
5292,
5333,
5307,
5492,
5615,
5497,
5568,
5576,
5585,
5711,
5541,
5581,
5542,
5601,
5702,
5584,
5578,
5625,
5698,
5619,
5615,
5556,
5582,
5396,
5220,
5338,
5196,
5168,
5144,
5121,
5121,
5115,
5147,
5146,
5226,
5413,
5277,
5285,
5242,
5128,
5070,
5050,
5007,
5104,
5062,
4985,
5033,
5073,
4897,
4924,
4913,
5037,
5095,
5091,
5102,
5188,
5316,
5184,
5105,
5054,
5077,
4897,
4892,
4964,
5207,
5898,
7558,
11964,
22398,
44157,
84198,
143028,
212488,
271947,
296052,
276557,
219479,
150344,
88787,
48180,
27160,
19572,
19427,
21832,
23749,
23457,
20727,
16234,
11744,
8047,
5526,
4099,
3421,
3176,
2989,
3020,
2819,
2936,
2815,
2875,
2812,
2838,
2818,
2740,
2825,
2847,
2783,
2847,
2776,
2746,
2767,
2752,
2702,
2715,
2677,
2683,
2677,
2657,
2675,
2662,
2526,
2620,
2545,
2553,
2534,
2512,
2505,
2497,
2485,
2507,
2486,
2458,
2393,
2459,
2514,
2414,
2341,
2428,
2339,
2335,
2377,
2344,
2325,
2363,
2390,
2324,
2290,
2236,
2258,
2331,
2191,
2251,
2203,
2156,
2198,
2218,
2213,
2187,
2139,
2120,
2174,
2097,
2049,
2118,
2184,
1996,
2124,
2022,
2029,
1989,
2067,
2047,
1947,
2000,
2001,
1977,
2073,
1900,
1942,
2011,
1960,
1918,
1950,
1933,
1917,
1909,
1947,
1886,
1853,
1935,
1887,
1876,
1849,
1822,
1823,
1748,
1850,
1771,
1804,
1767,
1769,
1762,
1705,
1781,
1707,
1790,
1754,
1762,
1685,
1655,
1687,
1707,
1715,
1752,
1647,
1607,
1641,
1603,
1617,
1636,
1628,
1613,
1538,
1515,
1504,
1465,
1505,
1422,
1378,
1343,
1354,
1364,
1347,
1369,
1380,
1397,
1421,
1416,
1412,
1389,
1426,
1411,
1393,
1395,
1397,
1476,
1412,
1408,
1413,
1424,
1394,
1429,
1411,
1339,
1336,
1362,
1347,
1367,
1383,
1405,
1387,
1358,
1347,
1331,
1296,
1334,
1310,
1301,
1295,
1307,
1291,
1276,
1346,
1280,
1319,
1291,
1268,
1297,
1263,
1282,
1235,
1206,
1195,
1268,
1297,
1254,
1227,
1208,
1240,
1186,
1169,
1186,
1148,
1109,
1199,
1134,
1165,
1120,
1140,
1166,
1161,
1148,
1116,
1148,
1127,
1059,
1061,
1064,
1079,
1083,
1120,
1094,
1067,
1069,
1125,
1095,
1083,
1086,
1068,
1041,
1110,
1125,
1030,
1116,
1070,
1073,
1071,
1058,
1139,
1084,
1063,
1138,
1060,
1183,
1209,
1431,
1778,
2468,
3612,
5585,
8470,
12556,
17498,
23385,
28894,
33754,
36714,
37332,
35091,
31122,
25416,
19725,
14296,
9782,
6521,
4181,
2701,
1841,
1397,
1134,
1068,
1028,
983,
926,
921,
858,
927,
862,
887,
846,
885,
874,
952,
888,
932,
910,
883,
904,
975,
1024,
1089,
1199,
1346,
1742,
2138,
2617,
3374,
4006,
4538,
5142,
5290,
5385,
4988,
4463,
3844,
3104,
2472,
1927,
1492,
1198,
990,
896,
810,
772,
736,
707,
718,
709,
702,
669,
679,
719,
695,
731,
753,
723,
780,
716,
779,
715,
745,
703,
683,
708,
641,
626,
666,
669,
634,
633,
658,
597,
623,
655,
631,
620,
598,
579,
582,
622,
611,
655,
612,
605,
643,
571,
589,
607,
602,
655,
592,
651,
565,
576,
592,
606,
575,
562,
602,
558,
637,
539,
616,
566,
562,
572,
517,
519,
585,
617,
549,
586,
557,
569,
579,
534,
550,
531,
534,
489,
477,
512,
539,
550,
547,
536,
487,
518,
531,
484,
493,
539,
456,
465,
456,
461,
471,
464,
459,
455,
464,
459,
472,
458,
444,
456,
434,
469,
480,
466,
448,
434,
462,
475,
497,
451,
452,
460,
468,
438,
461,
460,
466,
483,
415,
409,
445,
436,
466,
406,
406,
420,
391,
405,
393,
405,
401,
391,
397,
392,
393,
390,
388,
384,
408,
393,
396,
385,
383,
390,
380,
371,
373,
373,
379,
395,
354,
352,
373,
357,
422,
379,
403,
351,
353,
367,
353,
352,
370,
344,
343,
337,
361,
368,
330,
357,
334,
337,
343,
329,
337,
329,
311,
342,
340,
339,
303,
317,
324,
303,
316,
328,
321,
321,
311,
292,
281,
324,
301,
328,
306,
345,
298,
280,
328,
294,
291,
288,
277,
292,
274,
282,
308,
297,
272,
275,
275,
279,
302,
288,
272,
295,
267,
248,
273,
286,
282,
301,
272,
265,
264,
274,
242,
269,
250,
244,
228,
238,
261,
238,
255,
256,
224,
241,
241,
257,
241,
211,
247,
232,
221,
226,
240,
221,
202,
217,
259,
231,
247,
248,
213,
199,
237,
194,
228,
192,
239,
214,
230,
193,
216,
193,
201,
218,
223,
214,
204,
221,
204,
168,
170,
208,
180,
163,
192,
193,
174,
207,
189,
208,
196,
179,
158,
179,
175,
178,
172,
174,
172,
188,
160,
169,
164,
190,
179,
155,
175,
167,
178,
169,
157,
166,
145,
160,
151,
148,
166,
146,
182,
156,
134,
175,
146,
137,
148,
149,
149,
157,
122,
139,
124,
141,
145,
162,
107,
119,
152,
134,
153,
133,
129,
138,
136,
136,
132,
131,
125,
125,
120,
122,
134,
119,
115,
118,
122,
116,
112,
113,
116,
106,
108,
98,
108,
107,
106,
114,
101,
105,
101,
103,
106,
105,
97,
88,
102,
90,
105,
81,
92,
85,
89,
83,
91,
77,
115,
92,
85,
106,
87,
79,
62,
87,
99,
83,
81,
86,
86,
56,
76,
75,
74,
71,
102,
72,
87,
75,
74,
61,
74,
74,
61,
76,
60,
73,
56,
59,
54,
64,
71,
66,
50,
66,
52,
60,
55,
51,
65,
68,
57,
54,
28,
56,
43,
53,
36,
43,
42,
34,
53,
58,
54,
65,
50,
49,
47,
44,
40,
45,
35,
42,
43,
44,
42,
40,
29,
25,
35,
31,
37,
32,
33,
30,
40,
25,
32,
32,
37,
29,
21,
27,
23,
29,
24,
37,
25,
45,
23,
23,
26,
31,
16,
17,
20,
15,
20,
16,
11,
14,
24,
18,
8,
18,
11,
29,
14,
18,
8,
6,
8,
19,
7,
9,
9,
6,
8,
12,
8,
11,
2,
12,
5,
5,
8,
4,
1,
3,
4,
2,
0,
1,
0,
1,
0,
0,
0,
0,
0,
0,
0,
0,
1,
0,
0,
0,
0,
3,
0,
0,
0,
0,
0,
0,
1,
0,
0,
0,
2,
0,
1,
0,
0,
1,
0,
3,
0,
0,
2,
0,
0,
0,
0,
0,
0,
0,
4,
0,
0,
4,
1,
1,
0,
0,
1,
0,
0,
0,
2,
0,
0,
0,
4,
0,
0,
0,
0,
0,
1,
0,
0,
0,
0,
0,
0,
0,
0,
0,
0,
0,
0,
0,
0,
0,
0,
0,
0,
0,
0,
0,
0,
0,
0,
0,
0,
0,
0,
0,
0,
0,
0,
0,
0,
0,
0,
0,
1,
0,
0,
0,
0,
0,
0,
0,
0,
0,
0,
0,
0,
0,
0,
0,
0,
0,
1,
0,
0,
1,
0,
0,
0,
0,
0,
0,
0,
0,
0,
0,
0,
0,
1,
0,
0,
0,
1,
0,
0,
0,
0,
0,
0,
0,
0,
1,
1,
0,
0,
0,
0,
0,
0,
0,
0,
0,
1,
0,
0,
0,
0,
0,
0,
1,
0,
0,
0,
0,
0,
0,
0,
0,
0,
0,
0,
1,
0,
0,
0,
0,
0,
0,
0,
0,
0,
3,
1,
0,
0,
0,
0,
0,
1,
0,
0,
0,
0,
0,
0,
0,
0,
1,
0,
0,
0,
0,
0,
0,
0,
0,
0,
0,
0,
0,
0,
0,
0,
0,
2,
0,
0,
0,
0,
0,
0,
0,
0,
0,
0,
0,
0,
1,
0,
0,
1,
1,
0,
0,
1,
0,
0,
0,
0,
0,
0,
0,
0,
0,
0,
0,
0,
0,
0,
0,
0,
0,
0,
0,
0,
0,
1,
0,
0,
0,
0,
0,
1,
0,
0,
0,
0,
0,
0,
0,
1,
0,
0,
0,
0,
0,
0,
0,
0,
0,
0,
0,
0,
0,
0,
0,
0,
0,
0,
1,
0,
1,
1,
0,
0,
2,
0,
1,
1,
0,
0,
0,
1,
1,
0,
0,
1,
0,
1,
1,
0,
0,
0,
0,
0,
0,
0,
1,
0,
0,
0,
0,
0,
0,
#ENDOFDATA   :