File: NeXLSpectrum/Pyrite fragments/Pyrite_1_L3_15kV10nA130kHz_114kHz_100s.msa
#FORMAT      : EMSA/MAS Spectral Data File
#VERSION     : 1.0
#TITLE       : Bruker Nano spectrum Acquisition
#DATE        : 23-AUG-2019
#TIME        : 01:05
#OWNER       : Bruker Nano
#NPOINTS     : 4096
#NCOLUMNS    : 1
#XUNITS      : eV
#YUNITS      : counts
#DATATYPE    : Y
#XPERCHAN    : 5.00257
#OFFSET      : -482.8305
#BEAMKV      : 15
#SIGNALTYPE  : EDS
#ELEVANGLE   : 40
#AZIMANGLE   : 45
#LIVETIME    : 100
#REALTIME    : 127.097
#PROBECUR    : 10
#TAUWIND     : 0
#TDEADLYR    : 0
#TACTLYR     : 0.045
#TALWIND     : 0.004
#CHOFFSET    : 0.0
#XLABEL      : Energy (eV)
#YLABEL      : Counts
#EDSDET      : SDUTW
##DET_HASH   : c6370f9e-cc72-7559-f57e-203d75c8942b
##CALIB_HASH : fcf71094-1a10-2882-685e-00197fff5925
##SAMPLE     : <BulkSample id="1">\n<mOrientation id="2">\n<double>0.0</double>\n<double>0.0</double>\n<double>-1.0</double>\n</mOrientation>\n</BulkSample>
#SPECTRUM    :
0,
0,
0,
0,
0,
0,
0,
0,
0,
0,
0,
0,
0,
0,
0,
0,
0,
0,
3,
6,
14,
33,
33,
43,
44,
30,
48,
260,
3047,
23226,
94255,
211240,
255077,
168476,
60779,
12535,
1530,
257,
105,
0,
376,
3114,
3587,
2981,
1907,
1143,
1147,
1855,
3788,
7201,
9746,
9200,
5982,
2934,
1289,
1032,
1058,
1265,
1364,
1384,
1379,
1405,
1725,
2117,
2885,
3953,
4957,
5432,
4815,
4589,
5731,
8055,
10810,
12684,
12469,
12404,
17639,
30052,
45493,
53566,
47064,
31728,
17025,
8637,
5205,
4290,
4072,
3905,
4135,
4149,
4043,
3692,
3473,
3448,
3319,
3395,
3353,
3408,
3417,
3426,
3587,
3602,
3584,
3790,
3743,
3732,
3676,
3729,
3786,
3956,
3951,
3918,
4030,
4105,
4073,
4165,
4061,
4156,
4140,
4205,
4134,
4163,
4343,
4280,
4280,
4430,
4415,
4413,
4364,
4411,
4467,
4439,
4420,
4383,
4329,
4340,
4234,
4211,
4075,
4159,
4064,
4112,
4193,
4119,
4213,
4149,
4189,
4316,
4261,
4198,
4296,
4326,
4202,
4238,
4174,
4218,
4135,
4166,
4051,
4095,
4102,
4201,
4146,
4113,
4298,
4323,
4284,
4355,
4315,
4334,
4350,
4204,
4368,
4196,
4140,
4153,
4505,
4953,
6562,
10396,
19497,
38603,
73322,
125231,
186004,
237688,
259558,
241163,
191497,
130605,
77198,
41486,
23019,
16670,
16744,
18721,
20541,
20482,
17437,
13949,
10036,
6900,
4742,
3524,
2917,
2617,
2459,
2388,
2384,
2337,
2360,
2372,
2316,
2321,
2282,
2303,
2256,
2262,
2422,
2245,
2270,
2209,
2225,
2249,
2277,
2205,
2183,
2200,
2224,
2188,
2220,
2174,
2190,
2161,
2146,
2088,
2160,
2120,
2100,
2075,
2078,
2118,
2074,
2087,
2020,
2057,
2059,
2051,
1964,
2055,
1998,
1993,
1949,
2104,
1963,
1934,
1945,
1980,
1959,
1938,
2023,
1939,
1954,
1921,
1866,
1892,
1871,
1967,
1858,
1772,
1960,
1931,
1891,
1775,
1850,
1823,
1831,
1824,
1759,
1763,
1816,
1764,
1720,
1751,
1717,
1717,
1763,
1666,
1718,
1726,
1731,
1732,
1755,
1670,
1645,
1684,
1637,
1653,
1660,
1671,
1622,
1674,
1650,
1598,
1649,
1556,
1631,
1651,
1574,
1604,
1606,
1589,
1564,
1555,
1538,
1503,
1547,
1504,
1489,
1493,
1515,
1496,
1494,
1462,
1507,
1466,
1433,
1483,
1418,
1484,
1446,
1460,
1443,
1431,
1387,
1360,
1358,
1359,
1293,
1254,
1242,
1216,
1227,
1202,
1258,
1221,
1254,
1252,
1257,
1264,
1289,
1271,
1271,
1324,
1321,
1237,
1293,
1263,
1225,
1350,
1268,
1307,
1256,
1202,
1211,
1238,
1300,
1256,
1236,
1180,
1218,
1267,
1196,
1182,
1222,
1247,
1242,
1146,
1171,
1215,
1158,
1225,
1209,
1113,
1165,
1125,
1171,
1155,
1196,
1100,
1118,
1162,
1081,
1122,
1087,
1107,
1095,
1116,
1124,
1093,
1114,
997,
1157,
1093,
1111,
1027,
1036,
1092,
996,
1057,
1037,
1049,
1048,
1030,
982,
975,
992,
963,
1048,
986,
1010,
956,
1000,
1037,
990,
1003,
930,
930,
972,
981,
997,
969,
970,
992,
953,
992,
947,
955,
1001,
936,
989,
968,
1003,
973,
1000,
1106,
1131,
1294,
1652,
2234,
3348,
5139,
7823,
11495,
16246,
21816,
27004,
31419,
33991,
34676,
32779,
28994,
23739,
18387,
13372,
9093,
6125,
3818,
2529,
1645,
1275,
1046,
960,
855,
855,
842,
846,
859,
838,
840,
831,
880,
900,
815,
828,
828,
866,
794,
835,
895,
806,
884,
955,
1049,
1338,
1542,
1981,
2534,
3136,
3805,
4327,
4705,
4998,
4890,
4529,
4068,
3410,
2858,
2282,
1707,
1372,
1096,
916,
805,
710,
667,
640,
647,
628,
697,
666,
598,
626,
647,
649,
687,
680,
676,
701,
758,
786,
771,
721,
710,
705,
665,
666,
650,
613,
580,
556,
563,
558,
549,
617,
542,
549,
538,
550,
537,
589,
554,
596,
592,
560,
543,
579,
519,
514,
534,
592,
543,
505,
546,
532,
547,
576,
518,
557,
523,
579,
517,
544,
509,
528,
531,
514,
523,
478,
470,
519,
500,
523,
519,
498,
474,
499,
516,
512,
474,
465,
498,
544,
459,
480,
497,
479,
497,
436,
443,
472,
457,
421,
445,
428,
412,
428,
439,
420,
427,
417,
429,
425,
415,
405,
420,
447,
401,
401,
405,
411,
413,
395,
393,
431,
431,
408,
383,
427,
405,
382,
399,
399,
388,
388,
359,
373,
415,
375,
387,
408,
372,
432,
354,
389,
422,
391,
372,
426,
383,
392,
388,
395,
385,
375,
381,
347,
353,
358,
373,
354,
342,
344,
359,
327,
340,
349,
360,
293,
351,
361,
321,
338,
321,
349,
309,
331,
362,
355,
309,
319,
361,
320,
319,
306,
293,
338,
306,
309,
347,
324,
315,
360,
320,
301,
327,
303,
302,
288,
275,
318,
287,
288,
293,
295,
335,
294,
286,
288,
291,
272,
289,
261,
290,
286,
255,
294,
261,
286,
256,
297,
270,
281,
252,
255,
266,
254,
280,
250,
229,
264,
288,
272,
257,
259,
258,
244,
258,
243,
257,
222,
261,
257,
250,
236,
226,
279,
256,
246,
222,
244,
253,
242,
228,
221,
247,
198,
208,
231,
232,
244,
204,
210,
222,
230,
228,
203,
226,
214,
233,
228,
203,
210,
165,
180,
224,
186,
196,
202,
197,
198,
186,
197,
184,
203,
197,
189,
193,
160,
193,
196,
167,
187,
180,
189,
165,
162,
171,
195,
204,
183,
168,
167,
171,
214,
166,
154,
168,
162,
171,
158,
167,
178,
174,
179,
148,
139,
153,
155,
153,
141,
173,
168,
151,
167,
153,
166,
160,
160,
165,
137,
119,
148,
144,
148,
143,
153,
129,
106,
137,
132,
128,
147,
138,
122,
157,
139,
93,
126,
128,
132,
122,
116,
113,
125,
151,
119,
113,
105,
115,
100,
114,
124,
123,
105,
115,
111,
97,
129,
108,
115,
91,
106,
104,
121,
103,
112,
107,
115,
98,
98,
100,
94,
99,
90,
83,
101,
97,
90,
98,
84,
90,
86,
94,
81,
88,
78,
85,
81,
74,
81,
85,
83,
76,
79,
83,
80,
76,
81,
77,
78,
82,
75,
70,
79,
75,
74,
68,
68,
69,
73,
70,
68,
68,
69,
60,
47,
59,
52,
50,
66,
60,
59,
63,
56,
45,
51,
49,
44,
61,
54,
55,
53,
58,
53,
39,
49,
59,
41,
55,
46,
43,
35,
44,
53,
41,
31,
43,
46,
45,
44,
33,
37,
35,
29,
42,
53,
37,
24,
40,
27,
34,
40,
34,
25,
28,
32,
37,
27,
30,
33,
38,
32,
32,
29,
23,
25,
32,
19,
16,
21,
23,
31,
29,
15,
18,
11,
17,
19,
21,
8,
15,
16,
12,
15,
13,
13,
20,
15,
11,
5,
12,
14,
19,
9,
13,
7,
8,
6,
13,
4,
15,
0,
8,
7,
6,
1,
4,
7,
7,
1,
5,
3,
3,
0,
0,
0,
0,
0,
0,
1,
1,
1,
0,
0,
0,
0,
0,
0,
0,
1,
0,
0,
0,
2,
0,
0,
2,
0,
2,
0,
0,
0,
0,
0,
0,
0,
0,
0,
0,
0,
0,
0,
0,
0,
0,
0,
0,
0,
1,
0,
0,
0,
0,
0,
0,
0,
0,
0,
2,
0,
0,
0,
0,
0,
0,
1,
0,
1,
0,
0,
0,
0,
0,
0,
0,
0,
0,
0,
0,
0,
0,
2,
0,
1,
1,
0,
0,
1,
0,
0,
0,
0,
0,
0,
0,
3,
4,
0,
1,
0,
0,
0,
0,
0,
0,
0,
0,
0,
0,
0,
0,
0,
0,
0,
0,
0,
0,
0,
0,
1,
0,
0,
0,
0,
0,
0,
1,
1,
0,
1,
0,
0,
0,
0,
0,
1,
0,
2,
0,
0,
0,
0,
0,
1,
0,
0,
0,
0,
0,
0,
1,
0,
0,
0,
1,
2,
0,
0,
0,
1,
0,
0,
1,
0,
0,
0,
1,
0,
0,
0,
0,
0,
0,
3,
0,
0,
1,
0,
0,
0,
0,
0,
1,
0,
0,
1,
0,
0,
0,
0,
0,
0,
1,
0,
0,
0,
0,
1,
0,
0,
1,
1,
0,
0,
0,
0,
0,
0,
0,
0,
0,
0,
0,
0,
2,
0,
1,
0,
0,
0,
0,
0,
0,
0,
0,
0,
0,
0,
0,
0,
0,
0,
0,
0,
0,
0,
0,
1,
0,
0,
0,
0,
0,
1,
0,
0,
0,
0,
0,
0,
0,
0,
2,
0,
0,
0,
0,
0,
0,
0,
0,
0,
0,
0,
0,
0,
1,
1,
0,
0,
0,
0,
0,
0,
0,
0,
0,
0,
0,
0,
0,
0,
0,
1,
0,
0,
0,
0,
0,
0,
1,
0,
1,
0,
0,
0,
0,
1,
0,
0,
0,
0,
0,
0,
0,
0,
0,
1,
0,
0,
0,
0,
0,
0,
0,
0,
0,
1,
0,
0,
0,
1,
0,
0,
0,
0,
0,
0,
0,
0,
0,
0,
0,
0,
0,
#ENDOFDATA   :