File: NeXLSpectrum/Pyrite fragments/Pyrite_1_B3_15kV10nA130kHz_133kHz_100s.msa
#FORMAT      : EMSA/MAS Spectral Data File
#VERSION     : 1.0
#TITLE       : Bruker Nano spectrum Acquisition
#DATE        : 23-AUG-2019
#TIME        : 10:43
#OWNER       : Bruker Nano
#NPOINTS     : 4096
#NCOLUMNS    : 1
#XUNITS      : eV
#YUNITS      : counts
#DATATYPE    : Y
#XPERCHAN    : 5.00257
#OFFSET      : -482.8305
#BEAMKV      : 15
#SIGNALTYPE  : EDS
#ELEVANGLE   : 40
#AZIMANGLE   : 45
#LIVETIME    : 100
#REALTIME    : 133.101
#PROBECUR    : 10
#TAUWIND     : 0
#TDEADLYR    : 0
#TACTLYR     : 0.045
#TALWIND     : 0.004
#CHOFFSET    : 0.0
#XLABEL      : Energy (eV)
#YLABEL      : Counts
#EDSDET      : SDUTW
##DET_HASH   : c6370f9e-cc72-7559-f57e-203d75c8942b
##CALIB_HASH : fcf71094-1a10-2882-685e-00197fff5925
##SAMPLE     : <BulkSample id="1">\n<mOrientation id="2">\n<double>0.0</double>\n<double>0.0</double>\n<double>-1.0</double>\n</mOrientation>\n</BulkSample>
#SPECTRUM    :
0,
0,
0,
0,
0,
0,
0,
0,
0,
0,
0,
0,
0,
0,
0,
0,
0,
1,
9,
15,
38,
46,
41,
61,
56,
56,
60,
387,
4312,
31409,
126184,
280271,
339686,
223901,
82082,
16507,
2267,
365,
184,
116,
532,
3988,
4452,
3726,
2376,
1422,
1194,
1416,
1926,
2772,
3462,
3182,
2157,
1484,
1131,
1295,
1614,
1979,
2334,
2160,
2091,
2154,
2377,
3114,
4377,
6509,
8744,
9476,
8669,
7403,
7572,
10493,
14247,
16480,
16260,
16669,
23022,
39011,
59094,
69741,
61940,
40974,
21742,
11242,
6902,
5560,
5039,
4796,
4708,
4627,
4438,
4359,
4373,
4338,
4508,
4512,
4431,
4588,
4792,
4620,
4747,
4802,
4866,
5005,
4962,
5070,
5151,
5087,
5062,
5271,
5179,
5278,
5269,
5434,
5342,
5437,
5526,
5482,
5270,
5531,
5525,
5515,
5507,
5602,
5519,
5628,
5611,
5586,
5577,
5656,
5669,
5645,
5609,
5737,
5497,
5247,
5346,
5234,
5185,
5195,
5201,
5095,
5152,
5033,
5170,
5115,
5225,
5399,
5254,
5339,
5191,
5244,
5093,
5096,
5140,
5086,
4948,
5042,
4991,
4947,
4913,
5024,
4941,
4987,
5017,
5200,
5153,
5150,
5244,
5088,
5110,
5077,
4944,
5007,
4915,
5060,
5162,
5932,
7685,
11868,
22457,
44392,
84361,
144000,
213531,
271840,
298478,
277128,
220634,
149762,
89018,
47805,
27341,
19468,
19416,
21763,
23837,
23642,
20668,
16193,
11701,
7985,
5621,
4199,
3305,
3159,
2962,
2867,
2841,
2828,
2900,
2816,
2803,
2781,
2754,
2826,
2796,
2850,
2723,
2814,
2834,
2776,
2822,
2726,
2641,
2710,
2691,
2704,
2690,
2658,
2657,
2637,
2641,
2564,
2550,
2640,
2576,
2566,
2529,
2531,
2503,
2540,
2511,
2439,
2491,
2422,
2433,
2354,
2397,
2327,
2369,
2391,
2433,
2384,
2285,
2294,
2328,
2279,
2291,
2271,
2223,
2254,
2224,
2175,
2193,
2202,
2164,
2228,
2243,
2150,
2197,
2125,
2142,
2173,
2129,
2180,
2059,
2098,
2120,
2012,
2050,
2079,
2040,
2056,
1952,
1951,
2042,
2033,
1992,
1951,
2036,
2020,
1901,
1955,
1896,
1898,
1908,
1917,
1911,
1859,
1870,
1879,
1858,
1784,
1824,
1821,
1891,
1796,
1770,
1760,
1860,
1817,
1719,
1793,
1752,
1756,
1731,
1736,
1718,
1659,
1729,
1731,
1627,
1647,
1728,
1673,
1667,
1629,
1643,
1655,
1700,
1635,
1607,
1547,
1577,
1576,
1528,
1490,
1479,
1430,
1447,
1380,
1368,
1366,
1397,
1404,
1415,
1420,
1437,
1464,
1443,
1459,
1449,
1435,
1440,
1437,
1441,
1423,
1485,
1398,
1398,
1467,
1403,
1434,
1400,
1372,
1405,
1377,
1414,
1362,
1373,
1336,
1348,
1456,
1327,
1346,
1337,
1348,
1333,
1286,
1293,
1293,
1231,
1295,
1269,
1261,
1330,
1322,
1245,
1239,
1242,
1234,
1298,
1219,
1202,
1223,
1238,
1301,
1139,
1206,
1189,
1237,
1206,
1198,
1178,
1218,
1178,
1207,
1160,
1139,
1097,
1150,
1116,
1111,
1132,
1155,
1104,
1074,
1095,
1073,
1100,
1137,
1087,
1156,
1087,
1066,
1093,
1066,
1056,
1038,
1054,
1084,
1030,
1034,
1089,
1028,
1056,
1057,
1087,
1017,
1035,
1086,
1069,
1109,
1108,
1115,
1251,
1393,
1736,
2425,
3555,
5547,
8256,
12437,
17619,
23535,
29206,
33627,
36556,
36910,
35242,
31060,
25607,
19838,
14384,
9685,
6565,
4174,
2675,
1905,
1433,
1102,
1121,
1010,
950,
929,
894,
935,
889,
925,
920,
918,
896,
921,
879,
897,
866,
907,
886,
912,
960,
954,
1107,
1254,
1394,
1691,
2176,
2744,
3407,
4005,
4571,
5000,
5282,
5222,
4968,
4386,
3719,
3076,
2532,
1949,
1518,
1225,
1020,
873,
797,
707,
719,
737,
676,
707,
657,
677,
754,
675,
676,
752,
695,
763,
773,
733,
782,
744,
700,
712,
734,
759,
716,
671,
622,
629,
632,
618,
622,
661,
677,
599,
602,
702,
638,
600,
621,
617,
601,
672,
593,
621,
641,
646,
591,
563,
591,
611,
565,
606,
582,
603,
590,
576,
577,
561,
577,
633,
570,
564,
571,
561,
581,
599,
534,
536,
510,
587,
529,
550,
572,
553,
559,
551,
539,
537,
539,
539,
548,
535,
515,
521,
573,
522,
520,
511,
551,
515,
476,
516,
431,
457,
458,
443,
447,
471,
436,
456,
468,
449,
454,
438,
467,
447,
449,
470,
437,
438,
463,
439,
456,
437,
415,
472,
456,
447,
466,
439,
437,
478,
409,
430,
463,
432,
413,
429,
424,
424,
438,
384,
428,
415,
396,
371,
434,
373,
406,
397,
369,
396,
394,
392,
379,
385,
403,
381,
387,
381,
380,
384,
385,
383,
373,
341,
404,
364,
377,
365,
368,
376,
372,
385,
387,
340,
360,
352,
376,
354,
356,
379,
362,
363,
367,
386,
323,
351,
329,
341,
355,
361,
327,
335,
320,
336,
314,
347,
344,
324,
314,
314,
309,
302,
291,
291,
346,
305,
318,
272,
320,
339,
297,
330,
299,
330,
280,
302,
291,
273,
276,
279,
273,
281,
270,
259,
277,
310,
273,
278,
250,
299,
271,
239,
271,
318,
281,
294,
273,
259,
262,
254,
260,
270,
276,
248,
264,
245,
231,
259,
260,
223,
260,
236,
266,
263,
249,
258,
219,
267,
246,
271,
239,
212,
233,
203,
248,
236,
183,
209,
211,
238,
207,
217,
202,
232,
211,
222,
202,
200,
210,
203,
205,
202,
193,
206,
203,
221,
197,
187,
184,
179,
205,
215,
191,
205,
187,
182,
169,
186,
187,
193,
160,
160,
188,
188,
192,
178,
146,
189,
190,
195,
157,
159,
162,
161,
158,
169,
161,
165,
140,
160,
159,
171,
160,
159,
161,
160,
178,
171,
125,
153,
131,
179,
161,
152,
129,
163,
128,
147,
139,
143,
133,
118,
139,
131,
134,
105,
121,
115,
137,
134,
122,
137,
116,
142,
109,
121,
122,
123,
136,
118,
128,
112,
139,
116,
121,
111,
100,
111,
109,
107,
101,
106,
105,
116,
107,
115,
106,
102,
111,
94,
98,
95,
105,
98,
95,
95,
93,
95,
83,
91,
84,
91,
89,
81,
80,
90,
73,
83,
74,
83,
89,
78,
84,
87,
78,
96,
87,
78,
84,
74,
78,
70,
78,
67,
74,
70,
73,
64,
38,
73,
61,
67,
51,
60,
76,
60,
63,
60,
61,
57,
50,
72,
54,
41,
41,
55,
50,
53,
56,
47,
50,
51,
41,
50,
52,
43,
51,
38,
37,
37,
53,
36,
44,
55,
42,
40,
42,
32,
41,
39,
40,
44,
37,
38,
36,
29,
28,
30,
30,
24,
34,
34,
36,
29,
19,
30,
36,
20,
32,
30,
27,
18,
25,
23,
31,
28,
25,
26,
14,
17,
13,
16,
17,
15,
21,
17,
20,
16,
18,
19,
14,
9,
11,
14,
12,
17,
13,
16,
10,
7,
14,
9,
6,
6,
11,
13,
10,
7,
0,
5,
5,
4,
4,
4,
4,
0,
7,
0,
1,
0,
1,
0,
0,
2,
0,
0,
0,
0,
2,
0,
0,
1,
0,
0,
0,
0,
0,
0,
1,
1,
0,
1,
1,
0,
0,
0,
0,
0,
0,
0,
0,
0,
0,
0,
1,
0,
0,
0,
0,
0,
0,
0,
0,
0,
0,
0,
0,
0,
2,
0,
0,
0,
0,
0,
0,
3,
0,
1,
0,
1,
0,
0,
0,
0,
0,
0,
1,
0,
2,
0,
0,
0,
0,
0,
0,
0,
0,
0,
0,
0,
0,
0,
0,
0,
0,
0,
0,
0,
1,
0,
0,
0,
0,
0,
0,
0,
1,
0,
0,
0,
1,
0,
1,
1,
0,
0,
0,
0,
0,
0,
1,
0,
1,
0,
0,
0,
0,
0,
0,
1,
0,
0,
0,
1,
0,
0,
0,
0,
0,
0,
1,
0,
0,
1,
0,
1,
0,
0,
0,
0,
0,
0,
1,
1,
0,
0,
0,
0,
3,
0,
0,
0,
0,
1,
1,
0,
0,
0,
0,
0,
0,
0,
0,
0,
0,
0,
1,
0,
0,
0,
1,
0,
0,
0,
0,
0,
0,
0,
0,
0,
0,
0,
0,
0,
0,
0,
0,
0,
0,
0,
0,
0,
0,
0,
0,
0,
0,
0,
0,
0,
0,
0,
0,
0,
0,
0,
0,
0,
0,
0,
0,
1,
1,
0,
0,
0,
0,
0,
0,
0,
0,
0,
0,
0,
0,
0,
0,
1,
0,
0,
0,
0,
0,
0,
0,
0,
0,
0,
0,
0,
0,
0,
0,
0,
0,
0,
0,
0,
0,
0,
0,
0,
0,
1,
0,
0,
0,
0,
0,
0,
0,
1,
0,
0,
0,
0,
0,
0,
0,
0,
0,
0,
0,
0,
0,
0,
0,
0,
0,
0,
0,
0,
0,
0,
0,
0,
0,
0,
0,
0,
0,
0,
0,
1,
1,
0,
0,
0,
0,
0,
1,
0,
0,
0,
0,
0,
0,
0,
1,
0,
0,
0,
0,
0,
1,
0,
0,
0,
0,
0,
1,
1,
0,
2,
0,
0,
1,
0,
0,
0,
0,
0,
#ENDOFDATA   :