File: NeXLSpectrum/Pyrite fragments/Pyrite_1_J3_15kV10nA130kHz_28kHz_100s.msa
#FORMAT      : EMSA/MAS Spectral Data File
#VERSION     : 1.0
#TITLE       : Bruker Nano spectrum Acquisition
#DATE        : 23-AUG-2019
#TIME        : 00:40
#OWNER       : Bruker Nano
#NPOINTS     : 4096
#NCOLUMNS    : 1
#XUNITS      : eV
#YUNITS      : counts
#DATATYPE    : Y
#XPERCHAN    : 5.00257
#OFFSET      : -482.8305
#BEAMKV      : 15
#SIGNALTYPE  : EDS
#ELEVANGLE   : 40
#AZIMANGLE   : 45
#LIVETIME    : 100
#REALTIME    : 104.406
#PROBECUR    : 10
#TAUWIND     : 0
#TDEADLYR    : 0
#TACTLYR     : 0.045
#TALWIND     : 0.004
#CHOFFSET    : 0.0
#XLABEL      : Energy (eV)
#YLABEL      : Counts
#EDSDET      : SDUTW
##DET_HASH   : c6370f9e-cc72-7559-f57e-203d75c8942b
##CALIB_HASH : fcf71094-1a10-2882-685e-00197fff5925
##SAMPLE     : <BulkSample id="1">\n<mOrientation id="2">\n<double>0.0</double>\n<double>0.0</double>\n<double>-1.0</double>\n</mOrientation>\n</BulkSample>
#SPECTRUM    :
0,
0,
0,
0,
0,
0,
0,
0,
0,
0,
0,
0,
0,
0,
0,
0,
0,
0,
0,
0,
1,
2,
2,
4,
2,
3,
0,
42,
590,
4367,
18522,
42085,
51649,
34147,
12126,
2305,
259,
17,
0,
0,
6,
138,
129,
107,
92,
101,
123,
302,
675,
1347,
1910,
1867,
1204,
529,
213,
109,
123,
174,
173,
177,
171,
153,
197,
347,
804,
1683,
2444,
3026,
2405,
1435,
806,
559,
621,
712,
701,
754,
919,
1711,
2621,
3043,
2791,
1869,
1039,
576,
359,
269,
272,
240,
297,
289,
289,
277,
292,
283,
310,
300,
291,
236,
270,
255,
285,
280,
298,
293,
280,
289,
304,
305,
284,
313,
305,
297,
335,
298,
348,
365,
340,
405,
365,
360,
383,
361,
404,
377,
400,
386,
415,
408,
412,
431,
426,
457,
449,
418,
434,
472,
422,
407,
426,
455,
415,
448,
397,
424,
440,
450,
497,
533,
485,
498,
487,
493,
490,
490,
453,
441,
473,
486,
480,
498,
528,
524,
530,
551,
597,
581,
591,
622,
584,
634,
612,
613,
586,
584,
604,
629,
637,
786,
1037,
1749,
3332,
6761,
13231,
22506,
33588,
42918,
46893,
43833,
34965,
23703,
13772,
7179,
4037,
2978,
2900,
3416,
3835,
3695,
3094,
2389,
1644,
1041,
613,
437,
320,
291,
280,
278,
259,
267,
271,
267,
279,
278,
279,
278,
255,
257,
309,
294,
278,
257,
278,
286,
266,
275,
274,
283,
277,
279,
330,
292,
295,
272,
300,
318,
307,
305,
280,
285,
284,
300,
300,
308,
305,
324,
300,
320,
344,
329,
335,
336,
322,
299,
312,
308,
309,
311,
325,
320,
327,
314,
332,
343,
350,
328,
344,
341,
332,
329,
325,
336,
338,
348,
348,
357,
361,
342,
374,
368,
372,
370,
344,
363,
361,
352,
355,
352,
334,
374,
320,
351,
375,
341,
361,
376,
365,
367,
384,
351,
370,
372,
371,
374,
348,
361,
380,
373,
353,
356,
363,
385,
378,
379,
360,
390,
356,
388,
382,
362,
390,
375,
342,
387,
387,
345,
391,
376,
399,
391,
406,
393,
392,
358,
417,
387,
396,
399,
395,
387,
354,
369,
356,
371,
375,
388,
425,
410,
372,
419,
388,
401,
400,
396,
380,
375,
372,
385,
418,
445,
373,
391,
410,
426,
414,
400,
377,
414,
394,
404,
404,
432,
430,
399,
388,
394,
404,
404,
389,
417,
428,
404,
416,
396,
367,
417,
415,
426,
404,
442,
403,
436,
389,
407,
434,
404,
433,
395,
419,
431,
426,
432,
448,
421,
398,
422,
419,
405,
407,
418,
383,
410,
433,
424,
430,
443,
447,
431,
385,
399,
433,
424,
438,
452,
405,
400,
423,
429,
444,
419,
417,
426,
438,
435,
439,
424,
439,
419,
448,
439,
435,
433,
454,
461,
502,
544,
560,
636,
783,
1117,
1639,
2557,
4061,
5895,
8537,
11304,
14027,
16447,
17758,
17985,
17135,
15059,
12414,
9484,
6941,
4590,
3174,
1899,
1260,
852,
627,
532,
445,
440,
416,
408,
396,
412,
433,
408,
430,
457,
426,
389,
423,
432,
430,
411,
459,
506,
479,
491,
558,
607,
763,
859,
1136,
1444,
1873,
2236,
2512,
2731,
2923,
2799,
2641,
2345,
1925,
1593,
1140,
856,
647,
430,
361,
275,
257,
212,
208,
226,
199,
205,
195,
199,
225,
180,
201,
240,
218,
211,
209,
214,
221,
194,
204,
199,
217,
196,
198,
205,
228,
209,
218,
218,
212,
240,
207,
203,
213,
217,
222,
211,
225,
202,
211,
206,
239,
197,
234,
201,
213,
201,
197,
229,
206,
200,
211,
217,
212,
230,
227,
224,
224,
226,
188,
216,
212,
180,
198,
198,
226,
212,
189,
176,
200,
198,
203,
216,
194,
179,
214,
201,
209,
198,
197,
216,
186,
214,
208,
181,
196,
215,
215,
221,
213,
183,
220,
200,
198,
182,
180,
193,
206,
181,
196,
190,
203,
201,
187,
200,
210,
200,
201,
200,
202,
195,
205,
184,
204,
185,
203,
218,
197,
183,
203,
217,
193,
188,
199,
193,
192,
189,
200,
184,
209,
184,
201,
196,
199,
177,
185,
187,
198,
186,
187,
180,
178,
164,
202,
201,
169,
184,
176,
182,
179,
185,
195,
183,
177,
195,
196,
176,
181,
201,
171,
198,
182,
175,
174,
169,
169,
184,
159,
189,
155,
181,
196,
190,
174,
194,
187,
174,
179,
191,
176,
189,
188,
185,
183,
182,
166,
160,
152,
151,
163,
186,
184,
166,
169,
184,
174,
192,
179,
168,
155,
146,
171,
169,
169,
161,
161,
165,
156,
165,
145,
141,
177,
163,
154,
160,
154,
181,
165,
179,
144,
183,
152,
134,
168,
160,
167,
140,
153,
167,
159,
144,
152,
137,
152,
157,
149,
160,
128,
161,
146,
149,
157,
136,
127,
122,
165,
168,
112,
141,
113,
142,
125,
138,
132,
163,
137,
143,
125,
153,
140,
122,
135,
143,
125,
132,
125,
151,
126,
123,
120,
143,
118,
127,
130,
115,
125,
113,
128,
131,
117,
113,
124,
116,
125,
126,
133,
133,
127,
114,
137,
108,
117,
118,
111,
107,
116,
123,
114,
108,
103,
141,
121,
107,
113,
100,
123,
105,
105,
119,
96,
115,
103,
100,
114,
102,
90,
95,
97,
91,
107,
108,
111,
107,
83,
92,
97,
105,
95,
96,
111,
102,
85,
82,
93,
80,
90,
103,
94,
108,
74,
96,
90,
81,
75,
83,
74,
100,
84,
77,
86,
67,
83,
97,
92,
87,
82,
55,
72,
72,
93,
75,
97,
77,
68,
72,
81,
82,
79,
82,
59,
82,
70,
69,
60,
75,
70,
92,
69,
62,
45,
75,
73,
64,
70,
88,
67,
65,
63,
59,
75,
63,
66,
61,
61,
57,
59,
57,
59,
51,
50,
64,
47,
65,
60,
48,
38,
63,
59,
53,
45,
40,
45,
49,
53,
51,
39,
53,
51,
65,
53,
37,
51,
48,
46,
53,
53,
54,
39,
46,
40,
34,
33,
55,
34,
38,
51,
43,
39,
37,
33,
37,
32,
36,
35,
35,
27,
39,
27,
23,
28,
29,
17,
41,
29,
26,
30,
25,
27,
21,
33,
24,
24,
29,
20,
32,
33,
13,
20,
20,
25,
23,
25,
32,
21,
18,
19,
22,
18,
24,
13,
14,
17,
15,
14,
20,
19,
19,
17,
22,
18,
16,
10,
13,
19,
10,
9,
9,
11,
8,
9,
7,
13,
9,
5,
9,
8,
5,
7,
5,
9,
6,
3,
4,
4,
5,
3,
5,
6,
2,
3,
0,
2,
0,
0,
0,
0,
0,
0,
0,
0,
0,
0,
0,
0,
0,
0,
0,
0,
0,
0,
0,
0,
0,
2,
0,
0,
0,
0,
0,
0,
0,
0,
0,
0,
1,
0,
0,
0,
0,
1,
0,
0,
1,
0,
0,
1,
0,
0,
0,
0,
0,
1,
0,
0,
0,
0,
0,
0,
0,
0,
0,
0,
0,
0,
1,
0,
0,
1,
0,
2,
0,
0,
0,
0,
0,
1,
1,
0,
0,
1,
1,
0,
0,
0,
1,
0,
1,
0,
0,
0,
0,
1,
0,
0,
1,
0,
0,
0,
0,
0,
1,
0,
0,
0,
0,
0,
1,
0,
0,
0,
1,
0,
0,
0,
0,
1,
0,
1,
0,
0,
1,
0,
0,
0,
0,
0,
0,
1,
0,
0,
0,
0,
0,
0,
0,
0,
0,
0,
0,
1,
1,
0,
0,
0,
0,
0,
0,
0,
1,
0,
0,
0,
0,
0,
0,
0,
1,
0,
0,
3,
0,
0,
0,
0,
0,
1,
0,
1,
0,
0,
0,
1,
1,
0,
0,
0,
1,
0,
1,
0,
0,
1,
0,
0,
0,
0,
0,
0,
1,
0,
0,
0,
0,
0,
0,
0,
0,
0,
1,
0,
0,
0,
0,
0,
0,
0,
0,
0,
0,
0,
1,
0,
1,
0,
0,
0,
0,
1,
0,
0,
1,
0,
0,
0,
0,
1,
1,
0,
0,
0,
0,
0,
1,
0,
0,
0,
0,
0,
0,
0,
0,
1,
0,
0,
0,
0,
1,
0,
2,
0,
0,
0,
0,
0,
0,
0,
0,
1,
0,
1,
0,
0,
0,
0,
0,
0,
0,
0,
0,
0,
0,
0,
0,
0,
0,
0,
0,
1,
0,
0,
0,
0,
0,
0,
0,
0,
0,
0,
0,
0,
0,
1,
0,
0,
0,
0,
1,
0,
0,
0,
0,
0,
0,
0,
0,
0,
0,
0,
0,
0,
0,
1,
1,
0,
0,
0,
0,
0,
0,
1,
0,
0,
0,
0,
1,
0,
0,
0,
0,
0,
0,
0,
0,
#ENDOFDATA   :