File: NeXLSpectrum/Pyrite fragments/Pyrite_1_D3_15kV10nA130kHz_116kHz_100s.msa
#FORMAT      : EMSA/MAS Spectral Data File
#VERSION     : 1.0
#TITLE       : Bruker Nano spectrum Acquisition
#DATE        : 23-AUG-2019
#TIME        : 11:00
#OWNER       : Bruker Nano
#NPOINTS     : 4096
#NCOLUMNS    : 1
#XUNITS      : eV
#YUNITS      : counts
#DATATYPE    : Y
#XPERCHAN    : 5.00257
#OFFSET      : -482.8305
#BEAMKV      : 15
#SIGNALTYPE  : EDS
#ELEVANGLE   : 40
#AZIMANGLE   : 45
#LIVETIME    : 100
#REALTIME    : 127.574
#PROBECUR    : 10
#TAUWIND     : 0
#TDEADLYR    : 0
#TACTLYR     : 0.045
#TALWIND     : 0.004
#CHOFFSET    : 0.0
#XLABEL      : Energy (eV)
#YLABEL      : Counts
#EDSDET      : SDUTW
##DET_HASH   : c6370f9e-cc72-7559-f57e-203d75c8942b
##CALIB_HASH : fcf71094-1a10-2882-685e-00197fff5925
##SAMPLE     : <BulkSample id="1">\n<mOrientation id="2">\n<double>0.0</double>\n<double>0.0</double>\n<double>-1.0</double>\n</mOrientation>\n</BulkSample>
#SPECTRUM    :
0,
0,
0,
0,
0,
0,
0,
0,
0,
0,
0,
0,
0,
0,
0,
0,
0,
0,
3,
11,
25,
34,
41,
33,
28,
31,
43,
260,
3216,
23378,
94125,
210923,
254474,
167658,
61000,
12265,
1611,
261,
106,
0,
370,
3172,
3509,
2931,
1877,
1169,
1192,
1971,
4035,
7743,
10543,
10168,
6685,
3117,
1394,
1119,
1168,
1353,
1457,
1484,
1455,
1548,
1795,
2199,
3102,
4249,
5490,
5973,
5437,
5050,
5905,
7824,
11089,
12979,
12830,
12950,
17925,
30501,
45679,
54007,
47372,
32106,
17033,
8707,
5242,
4094,
3992,
3606,
3505,
3478,
3384,
3234,
3176,
3122,
3353,
3422,
3424,
3498,
3473,
3529,
3630,
3504,
3685,
3795,
3747,
3817,
3990,
3913,
4059,
4023,
4063,
4056,
4077,
4191,
4220,
4410,
4366,
4255,
4422,
4265,
4278,
4316,
4410,
4419,
4402,
4467,
4420,
4478,
4456,
4449,
4462,
4478,
4543,
4575,
4505,
4405,
4409,
4232,
4242,
4164,
4234,
4158,
4155,
4209,
4304,
4235,
4330,
4370,
4387,
4337,
4349,
4421,
4341,
4240,
4192,
4288,
4173,
4194,
4004,
4189,
4263,
4263,
4151,
4261,
4338,
4347,
4442,
4397,
4481,
4485,
4463,
4396,
4301,
4261,
4229,
4342,
4563,
5051,
6588,
10532,
19642,
39290,
74095,
127279,
189293,
241204,
264186,
246492,
195273,
133002,
78042,
42552,
23526,
16878,
16806,
19222,
21001,
20682,
18221,
14209,
10144,
6980,
4866,
3584,
3008,
2658,
2537,
2474,
2454,
2413,
2413,
2415,
2343,
2296,
2324,
2342,
2280,
2336,
2268,
2444,
2338,
2345,
2271,
2391,
2298,
2284,
2252,
2210,
2267,
2258,
2288,
2250,
2224,
2194,
2160,
2220,
2131,
2177,
2123,
2171,
2117,
2141,
2117,
2185,
2105,
2028,
2046,
2118,
2047,
2078,
2078,
2042,
2119,
2097,
2011,
2009,
2061,
1946,
1996,
1998,
1989,
1957,
1973,
1954,
1924,
1959,
1950,
1897,
1885,
1858,
1862,
1847,
1794,
1856,
1786,
1827,
1811,
1867,
1782,
1854,
1793,
1785,
1826,
1802,
1824,
1775,
1852,
1713,
1740,
1732,
1770,
1720,
1808,
1732,
1723,
1651,
1681,
1656,
1686,
1651,
1658,
1678,
1692,
1645,
1583,
1674,
1602,
1645,
1592,
1625,
1590,
1604,
1534,
1551,
1602,
1562,
1545,
1547,
1554,
1538,
1534,
1504,
1543,
1529,
1490,
1525,
1469,
1471,
1486,
1440,
1489,
1420,
1420,
1431,
1398,
1394,
1370,
1387,
1337,
1303,
1279,
1249,
1232,
1236,
1247,
1276,
1280,
1295,
1297,
1312,
1330,
1293,
1305,
1300,
1294,
1283,
1291,
1286,
1274,
1272,
1357,
1274,
1299,
1266,
1270,
1274,
1257,
1208,
1217,
1240,
1270,
1231,
1172,
1225,
1234,
1159,
1176,
1163,
1237,
1145,
1135,
1217,
1192,
1203,
1172,
1166,
1163,
1195,
1123,
1122,
1199,
1142,
1155,
1144,
1138,
1150,
1121,
1077,
1193,
1118,
1081,
1015,
1120,
1041,
1051,
1035,
1140,
1082,
1008,
1086,
1055,
1034,
1039,
1083,
1128,
974,
999,
992,
1002,
1031,
1053,
1051,
959,
1056,
1009,
1006,
947,
960,
1037,
970,
922,
1015,
948,
998,
941,
1005,
924,
988,
951,
949,
928,
1000,
1006,
1005,
1037,
1121,
1171,
1308,
1571,
2289,
3314,
5242,
7980,
11790,
16589,
21699,
27453,
31625,
34199,
34941,
32663,
28914,
24017,
18382,
13450,
9210,
5950,
3838,
2444,
1787,
1277,
1105,
1015,
858,
877,
855,
882,
900,
828,
841,
798,
834,
850,
841,
885,
807,
838,
856,
861,
847,
882,
919,
985,
1089,
1272,
1572,
2088,
2625,
3126,
3787,
4309,
4699,
4857,
4901,
4700,
4179,
3539,
2881,
2322,
1759,
1383,
1078,
941,
802,
728,
627,
636,
679,
647,
619,
612,
621,
628,
679,
630,
641,
692,
682,
631,
675,
674,
708,
652,
663,
619,
673,
617,
630,
567,
607,
552,
601,
579,
586,
515,
567,
562,
544,
533,
539,
574,
586,
512,
531,
561,
542,
554,
563,
555,
585,
584,
558,
552,
499,
552,
598,
522,
580,
536,
559,
548,
551,
511,
547,
533,
484,
507,
469,
544,
502,
527,
497,
513,
516,
542,
504,
492,
505,
511,
512,
444,
480,
473,
536,
454,
458,
516,
480,
475,
467,
460,
460,
432,
505,
432,
478,
416,
439,
446,
452,
428,
443,
417,
425,
416,
395,
392,
408,
399,
391,
386,
375,
395,
378,
426,
468,
427,
389,
443,
396,
412,
422,
413,
418,
443,
444,
404,
383,
406,
423,
389,
421,
394,
414,
388,
375,
362,
366,
383,
375,
391,
384,
379,
372,
381,
375,
371,
368,
371,
356,
345,
363,
362,
346,
352,
349,
323,
353,
317,
344,
341,
352,
349,
313,
355,
371,
328,
329,
319,
339,
318,
329,
338,
331,
326,
297,
313,
302,
311,
325,
333,
318,
319,
339,
312,
307,
292,
320,
318,
304,
300,
276,
292,
301,
311,
313,
312,
289,
282,
304,
321,
299,
272,
289,
289,
270,
294,
271,
312,
268,
288,
283,
272,
272,
305,
272,
280,
276,
266,
262,
273,
259,
250,
248,
269,
235,
258,
256,
239,
254,
270,
283,
253,
222,
233,
223,
218,
246,
245,
215,
252,
210,
236,
246,
217,
203,
219,
196,
205,
211,
252,
214,
201,
246,
190,
225,
220,
186,
196,
207,
194,
165,
204,
221,
232,
211,
224,
224,
233,
186,
181,
203,
203,
194,
189,
174,
178,
178,
182,
191,
205,
168,
196,
180,
196,
179,
165,
188,
159,
180,
162,
175,
195,
174,
162,
193,
180,
162,
162,
178,
154,
162,
148,
169,
150,
166,
155,
169,
174,
182,
165,
135,
156,
149,
146,
148,
161,
158,
156,
162,
128,
117,
135,
158,
152,
149,
156,
164,
119,
116,
133,
125,
119,
132,
127,
143,
129,
114,
128,
108,
122,
100,
126,
117,
109,
118,
123,
121,
130,
124,
107,
117,
107,
115,
119,
118,
116,
118,
124,
119,
123,
104,
130,
100,
112,
99,
93,
124,
82,
88,
92,
95,
92,
89,
87,
95,
89,
98,
91,
88,
82,
78,
93,
71,
84,
86,
91,
88,
87,
79,
88,
90,
92,
83,
86,
79,
83,
70,
69,
81,
74,
74,
77,
79,
74,
65,
77,
63,
81,
70,
66,
68,
68,
68,
53,
56,
54,
49,
67,
69,
64,
63,
49,
58,
61,
53,
66,
50,
46,
60,
45,
53,
47,
51,
61,
59,
51,
62,
45,
48,
40,
36,
41,
48,
56,
37,
38,
44,
39,
32,
48,
45,
44,
48,
37,
44,
40,
30,
37,
30,
36,
30,
30,
40,
32,
27,
28,
35,
16,
31,
22,
31,
30,
29,
32,
20,
16,
20,
18,
16,
26,
29,
30,
22,
26,
19,
26,
23,
26,
8,
10,
17,
15,
15,
18,
11,
10,
15,
11,
13,
13,
7,
7,
14,
10,
6,
11,
15,
8,
5,
5,
11,
9,
5,
3,
4,
0,
3,
8,
4,
2,
2,
2,
0,
4,
0,
1,
2,
0,
0,
0,
0,
0,
0,
0,
0,
0,
0,
0,
0,
0,
0,
0,
0,
0,
0,
0,
0,
0,
0,
3,
0,
0,
2,
2,
0,
0,
0,
1,
0,
0,
0,
0,
0,
0,
0,
0,
0,
0,
0,
0,
0,
0,
0,
2,
0,
0,
0,
0,
0,
0,
0,
0,
0,
2,
1,
1,
1,
0,
0,
0,
0,
1,
0,
1,
0,
2,
0,
1,
0,
0,
2,
0,
0,
0,
0,
0,
0,
0,
0,
0,
0,
0,
0,
0,
0,
0,
0,
0,
0,
0,
0,
0,
0,
0,
0,
0,
0,
0,
0,
0,
0,
0,
0,
0,
0,
0,
0,
0,
0,
0,
0,
0,
1,
0,
0,
0,
3,
0,
1,
1,
0,
0,
0,
0,
0,
1,
0,
3,
0,
0,
0,
1,
0,
0,
0,
0,
0,
0,
1,
1,
0,
0,
0,
0,
0,
0,
0,
1,
0,
0,
0,
0,
0,
0,
0,
2,
0,
0,
0,
0,
0,
0,
0,
0,
0,
0,
0,
0,
0,
0,
0,
0,
0,
0,
0,
0,
0,
0,
0,
0,
0,
0,
0,
0,
0,
0,
0,
0,
0,
0,
0,
0,
1,
0,
0,
0,
0,
0,
0,
0,
0,
0,
0,
0,
0,
0,
0,
0,
0,
0,
0,
0,
0,
0,
0,
0,
0,
0,
0,
0,
0,
0,
1,
0,
0,
0,
0,
0,
0,
0,
0,
0,
1,
0,
0,
1,
2,
0,
0,
0,
0,
0,
1,
0,
0,
0,
0,
0,
0,
0,
0,
0,
0,
0,
0,
0,
0,
0,
0,
0,
0,
0,
0,
0,
0,
0,
0,
0,
0,
0,
0,
0,
0,
0,
0,
0,
0,
0,
1,
2,
0,
0,
0,
0,
0,
1,
0,
0,
0,
0,
0,
0,
0,
0,
0,
1,
0,
1,
0,
0,
0,
0,
0,
1,
0,
1,
0,
1,
1,
0,
0,
0,
1,
1,
0,
0,
1,
1,
1,
0,
0,
0,
0,
0,
0,
#ENDOFDATA   :