File: NeXLSpectrum/Pyrite fragments/Pyrite_1_D1_15kV10nA130kHz_116kHz_100s.msa
#FORMAT      : EMSA/MAS Spectral Data File
#VERSION     : 1.0
#TITLE       : Bruker Nano spectrum Acquisition
#DATE        : 23-AUG-2019
#TIME        : 10:55
#OWNER       : Bruker Nano
#NPOINTS     : 4096
#NCOLUMNS    : 1
#XUNITS      : eV
#YUNITS      : counts
#DATATYPE    : Y
#XPERCHAN    : 5.00257
#OFFSET      : -482.8305
#BEAMKV      : 15
#SIGNALTYPE  : EDS
#ELEVANGLE   : 40
#AZIMANGLE   : 45
#LIVETIME    : 100
#REALTIME    : 127.679
#PROBECUR    : 10
#TAUWIND     : 0
#TDEADLYR    : 0
#TACTLYR     : 0.045
#TALWIND     : 0.004
#CHOFFSET    : 0.0
#XLABEL      : Energy (eV)
#YLABEL      : Counts
#EDSDET      : SDUTW
##DET_HASH   : c6370f9e-cc72-7559-f57e-203d75c8942b
##CALIB_HASH : fcf71094-1a10-2882-685e-00197fff5925
##SAMPLE     : <BulkSample id="1">\n<mOrientation id="2">\n<double>0.0</double>\n<double>0.0</double>\n<double>-1.0</double>\n</mOrientation>\n</BulkSample>
#SPECTRUM    :
0,
0,
0,
0,
0,
0,
0,
0,
0,
0,
0,
0,
0,
0,
0,
0,
0,
1,
7,
15,
16,
30,
38,
29,
29,
35,
48,
248,
3058,
23177,
94277,
210795,
255646,
168982,
60679,
12490,
1591,
221,
20,
0,
377,
3111,
3529,
2869,
1877,
1203,
1143,
1971,
3922,
7332,
10317,
9701,
6366,
2992,
1349,
1112,
1177,
1357,
1435,
1521,
1485,
1542,
1771,
2234,
3078,
4493,
5569,
5950,
5460,
4778,
5672,
7883,
11194,
12714,
12787,
12738,
17965,
30429,
46071,
53583,
47776,
31756,
16846,
8493,
5269,
4096,
3863,
3578,
3379,
3377,
3364,
3244,
3218,
3385,
3402,
3460,
3464,
3412,
3501,
3539,
3560,
3635,
3656,
3716,
3806,
3845,
3862,
3941,
4009,
4066,
4162,
4125,
4192,
4202,
4169,
4187,
4360,
4315,
4301,
4327,
4199,
4265,
4353,
4409,
4465,
4468,
4488,
4486,
4417,
4583,
4598,
4647,
4491,
4544,
4513,
4324,
4323,
4241,
4323,
4133,
4105,
4153,
4162,
4195,
4247,
4238,
4344,
4419,
4436,
4318,
4317,
4353,
4327,
4306,
4296,
4319,
4211,
4257,
4182,
4284,
4137,
4157,
4204,
4264,
4262,
4423,
4339,
4393,
4475,
4374,
4476,
4296,
4318,
4343,
4310,
4443,
4598,
5095,
6608,
10575,
19756,
39367,
74648,
127399,
190059,
241427,
264391,
247128,
196236,
133613,
78852,
42699,
23496,
17152,
17089,
19334,
21284,
20574,
18058,
14226,
10183,
7057,
4841,
3622,
2993,
2650,
2538,
2491,
2434,
2379,
2363,
2307,
2377,
2352,
2345,
2402,
2405,
2334,
2290,
2275,
2373,
2306,
2303,
2245,
2247,
2270,
2292,
2263,
2279,
2285,
2235,
2221,
2260,
2230,
2209,
2220,
2213,
2199,
2147,
2160,
2183,
2126,
2155,
2088,
2106,
2049,
2120,
2083,
2077,
2060,
2079,
2040,
2048,
2042,
2022,
2035,
2037,
2032,
1977,
1996,
1981,
1935,
1926,
2025,
2004,
1986,
1950,
1892,
1858,
1980,
1853,
1949,
1859,
1926,
1910,
1874,
1802,
1778,
1855,
1800,
1828,
1843,
1763,
1823,
1778,
1845,
1752,
1738,
1758,
1707,
1795,
1740,
1712,
1717,
1700,
1728,
1733,
1665,
1694,
1672,
1652,
1644,
1633,
1637,
1642,
1604,
1669,
1687,
1617,
1541,
1669,
1610,
1603,
1553,
1576,
1562,
1558,
1559,
1513,
1493,
1498,
1489,
1552,
1500,
1479,
1469,
1498,
1544,
1446,
1447,
1480,
1459,
1408,
1416,
1418,
1390,
1369,
1361,
1323,
1305,
1270,
1238,
1236,
1254,
1258,
1275,
1277,
1301,
1315,
1303,
1310,
1319,
1310,
1302,
1309,
1295,
1298,
1293,
1329,
1293,
1290,
1275,
1342,
1271,
1286,
1312,
1293,
1312,
1291,
1300,
1238,
1313,
1258,
1296,
1236,
1209,
1225,
1218,
1193,
1196,
1161,
1173,
1137,
1145,
1216,
1224,
1198,
1183,
1134,
1155,
1117,
1138,
1121,
1117,
1138,
1140,
1108,
1160,
1159,
1078,
1145,
1133,
1083,
998,
1132,
1110,
1098,
1093,
1054,
1035,
1126,
991,
988,
1050,
1066,
1019,
1005,
1020,
1033,
1011,
1021,
1075,
1018,
1047,
1020,
1012,
1028,
967,
1053,
970,
1012,
984,
925,
974,
978,
1046,
987,
958,
975,
1003,
969,
969,
1008,
1050,
1014,
1100,
1179,
1323,
1647,
2208,
3369,
5240,
7979,
11787,
16550,
21547,
27529,
31916,
34612,
35232,
32739,
29352,
24226,
18551,
13311,
9173,
6022,
3855,
2529,
1688,
1388,
1093,
960,
959,
861,
884,
871,
865,
887,
823,
872,
854,
826,
883,
847,
813,
835,
871,
864,
827,
893,
873,
1020,
1147,
1353,
1593,
1985,
2596,
3088,
3795,
4259,
4850,
5070,
4961,
4630,
4119,
3494,
2883,
2365,
1794,
1403,
1089,
919,
840,
715,
689,
657,
717,
643,
676,
651,
622,
599,
635,
612,
671,
667,
669,
682,
661,
652,
638,
659,
658,
653,
605,
569,
594,
567,
598,
581,
561,
576,
574,
563,
578,
544,
572,
577,
530,
564,
567,
560,
544,
588,
578,
536,
592,
571,
530,
523,
475,
543,
539,
540,
551,
550,
572,
534,
550,
553,
517,
511,
528,
532,
512,
486,
482,
479,
498,
478,
542,
559,
504,
535,
513,
465,
494,
468,
504,
539,
507,
477,
459,
503,
507,
480,
450,
468,
452,
491,
442,
465,
425,
446,
435,
454,
423,
432,
460,
424,
458,
432,
416,
447,
420,
421,
429,
430,
424,
441,
405,
422,
431,
424,
440,
480,
425,
423,
395,
418,
401,
450,
422,
430,
436,
427,
374,
405,
412,
411,
407,
407,
393,
416,
375,
374,
367,
370,
384,
372,
381,
354,
357,
370,
379,
354,
368,
366,
362,
381,
358,
361,
353,
364,
377,
376,
381,
366,
339,
335,
349,
360,
351,
336,
364,
343,
369,
322,
339,
353,
345,
332,
324,
365,
320,
305,
353,
329,
323,
330,
324,
311,
310,
312,
320,
308,
319,
298,
302,
287,
315,
292,
326,
311,
328,
298,
279,
302,
303,
300,
282,
296,
277,
287,
291,
284,
267,
315,
282,
279,
288,
283,
277,
283,
270,
252,
271,
264,
302,
243,
263,
267,
259,
289,
275,
276,
254,
264,
243,
249,
258,
272,
233,
232,
254,
223,
256,
255,
237,
240,
244,
210,
215,
254,
243,
245,
202,
232,
233,
259,
241,
193,
226,
246,
218,
223,
239,
234,
217,
221,
208,
205,
218,
210,
193,
188,
217,
202,
193,
209,
177,
202,
228,
204,
210,
203,
184,
200,
192,
180,
188,
188,
178,
194,
193,
176,
176,
174,
155,
189,
167,
181,
185,
165,
171,
182,
158,
167,
149,
167,
159,
163,
160,
173,
160,
158,
164,
151,
174,
196,
144,
160,
178,
151,
158,
153,
125,
127,
144,
155,
155,
140,
139,
135,
152,
158,
144,
147,
119,
150,
130,
144,
116,
111,
122,
123,
111,
134,
124,
151,
116,
115,
136,
114,
119,
132,
115,
119,
119,
140,
110,
105,
127,
114,
128,
101,
114,
110,
130,
103,
115,
111,
117,
94,
95,
118,
100,
83,
84,
97,
85,
91,
92,
87,
96,
87,
101,
87,
89,
89,
90,
92,
92,
97,
84,
94,
83,
72,
83,
62,
75,
80,
89,
75,
83,
75,
90,
56,
67,
78,
70,
65,
83,
70,
76,
66,
72,
56,
60,
68,
61,
61,
58,
62,
57,
65,
55,
66,
61,
48,
69,
58,
58,
55,
55,
64,
57,
39,
56,
58,
52,
46,
46,
44,
39,
51,
51,
63,
59,
47,
45,
40,
50,
43,
42,
35,
32,
36,
38,
35,
40,
31,
43,
36,
43,
40,
36,
30,
32,
33,
30,
33,
26,
31,
31,
24,
23,
34,
36,
31,
34,
27,
33,
33,
31,
34,
26,
30,
19,
13,
30,
14,
26,
16,
18,
15,
24,
18,
19,
18,
13,
22,
10,
18,
11,
17,
16,
16,
8,
9,
14,
20,
6,
9,
11,
7,
12,
14,
0,
10,
11,
3,
6,
11,
7,
9,
2,
2,
3,
4,
0,
0,
2,
0,
1,
0,
0,
2,
0,
0,
0,
0,
0,
0,
3,
1,
0,
0,
0,
0,
0,
0,
0,
1,
0,
0,
1,
0,
0,
0,
0,
1,
0,
0,
0,
0,
0,
0,
0,
1,
0,
0,
0,
0,
0,
0,
0,
0,
0,
0,
0,
0,
0,
0,
0,
0,
0,
0,
0,
3,
0,
0,
0,
0,
0,
0,
2,
0,
0,
0,
0,
1,
0,
0,
0,
0,
0,
0,
0,
0,
0,
0,
0,
0,
0,
0,
0,
0,
0,
0,
0,
1,
0,
0,
0,
2,
0,
0,
0,
0,
0,
0,
0,
0,
0,
0,
0,
0,
0,
0,
0,
0,
0,
1,
0,
0,
0,
1,
0,
1,
0,
0,
0,
0,
0,
0,
0,
0,
0,
0,
0,
0,
2,
0,
0,
0,
0,
1,
0,
0,
1,
0,
0,
3,
1,
0,
1,
0,
0,
0,
1,
0,
0,
1,
1,
0,
0,
0,
0,
0,
0,
2,
0,
0,
0,
0,
0,
0,
0,
3,
0,
0,
0,
1,
0,
0,
0,
0,
0,
0,
0,
0,
1,
0,
0,
0,
0,
0,
0,
0,
0,
0,
0,
0,
0,
0,
0,
2,
0,
0,
0,
0,
0,
0,
1,
0,
1,
0,
1,
1,
0,
0,
0,
0,
0,
0,
0,
0,
0,
1,
0,
0,
0,
0,
0,
1,
0,
0,
1,
0,
0,
0,
0,
0,
0,
0,
0,
0,
0,
0,
0,
0,
0,
0,
0,
0,
0,
0,
0,
0,
2,
1,
0,
0,
0,
0,
0,
0,
0,
0,
0,
0,
0,
0,
0,
0,
0,
0,
0,
0,
0,
0,
0,
0,
0,
0,
0,
0,
0,
0,
0,
0,
2,
0,
0,
1,
0,
0,
0,
0,
0,
1,
1,
0,
0,
0,
0,
0,
0,
0,
0,
1,
0,
1,
1,
0,
0,
0,
0,
0,
0,
0,
0,
0,
1,
0,
0,
1,
0,
0,
0,
0,
0,
0,
1,
0,
0,
0,
0,
0,
0,
0,
0,
0,
0,
#ENDOFDATA   :