File: NeXLSpectrum/Pyrite fragments/Pyrite_1_C1_15kV10nA130kHz_86kHz_100s.msa
#FORMAT      : EMSA/MAS Spectral Data File
#VERSION     : 1.0
#TITLE       : Bruker Nano spectrum Acquisition
#DATE        : 23-AUG-2019
#TIME        : 10:46
#OWNER       : Bruker Nano
#NPOINTS     : 4096
#NCOLUMNS    : 1
#XUNITS      : eV
#YUNITS      : counts
#DATATYPE    : Y
#XPERCHAN    : 5.00257
#OFFSET      : -482.8305
#BEAMKV      : 15
#SIGNALTYPE  : EDS
#ELEVANGLE   : 40
#AZIMANGLE   : 45
#LIVETIME    : 100
#REALTIME    : 119.038
#PROBECUR    : 10
#TAUWIND     : 0
#TDEADLYR    : 0
#TACTLYR     : 0.045
#TALWIND     : 0.004
#CHOFFSET    : 0.0
#XLABEL      : Energy (eV)
#YLABEL      : Counts
#EDSDET      : SDUTW
##DET_HASH   : c6370f9e-cc72-7559-f57e-203d75c8942b
##CALIB_HASH : fcf71094-1a10-2882-685e-00197fff5925
##SAMPLE     : <BulkSample id="1">\n<mOrientation id="2">\n<double>0.0</double>\n<double>0.0</double>\n<double>-1.0</double>\n</mOrientation>\n</BulkSample>
#SPECTRUM    :
0,
0,
0,
0,
0,
0,
0,
0,
0,
0,
0,
0,
0,
0,
0,
0,
0,
0,
2,
6,
11,
31,
24,
22,
28,
38,
30,
230,
2376,
18464,
75836,
169208,
204407,
134711,
48360,
9788,
1191,
121,
23,
0,
82,
722,
775,
825,
536,
476,
472,
871,
1846,
3465,
4868,
4705,
3106,
1434,
643,
507,
692,
868,
1044,
970,
824,
735,
832,
1276,
2285,
4262,
6219,
7036,
5950,
4149,
2954,
3031,
3537,
4075,
4104,
4373,
6052,
10186,
15411,
17972,
15914,
10619,
5642,
2896,
1754,
1448,
1418,
1433,
1449,
1572,
1479,
1391,
1319,
1204,
1314,
1339,
1297,
1271,
1364,
1384,
1490,
1474,
1461,
1488,
1487,
1557,
1510,
1548,
1623,
1708,
1695,
1711,
1809,
1780,
1850,
1923,
1950,
2030,
2028,
1981,
1950,
2002,
2089,
2203,
2192,
2170,
2221,
2209,
2291,
2400,
2290,
2453,
2470,
2358,
2447,
2372,
2400,
2299,
2271,
2321,
2328,
2310,
2439,
2435,
2466,
2601,
2653,
2678,
2670,
2754,
2792,
2698,
2733,
2661,
2689,
2765,
2730,
2699,
2765,
2723,
2780,
2772,
2947,
2894,
3035,
3022,
3056,
3096,
3002,
3065,
3123,
2968,
3022,
3097,
3161,
3113,
3207,
3718,
4861,
8055,
15181,
30451,
58183,
99560,
148708,
189796,
207624,
193702,
153769,
104171,
62047,
32976,
18411,
13389,
13101,
15175,
16438,
15791,
13920,
10319,
7325,
4787,
3094,
2189,
1774,
1556,
1462,
1515,
1495,
1474,
1449,
1443,
1467,
1486,
1462,
1511,
1449,
1434,
1450,
1502,
1461,
1489,
1477,
1535,
1491,
1471,
1496,
1492,
1509,
1530,
1480,
1535,
1540,
1515,
1524,
1540,
1522,
1541,
1559,
1548,
1519,
1485,
1607,
1527,
1525,
1590,
1522,
1527,
1524,
1465,
1567,
1509,
1532,
1563,
1520,
1564,
1532,
1590,
1506,
1482,
1511,
1499,
1524,
1570,
1459,
1555,
1540,
1573,
1528,
1542,
1499,
1513,
1466,
1591,
1508,
1546,
1426,
1518,
1460,
1484,
1496,
1490,
1547,
1481,
1512,
1495,
1479,
1458,
1388,
1463,
1458,
1417,
1430,
1495,
1470,
1429,
1432,
1453,
1455,
1409,
1394,
1402,
1385,
1370,
1378,
1461,
1424,
1372,
1446,
1428,
1359,
1411,
1377,
1395,
1362,
1389,
1375,
1317,
1390,
1384,
1299,
1372,
1340,
1357,
1355,
1391,
1352,
1306,
1338,
1314,
1288,
1294,
1379,
1294,
1272,
1271,
1265,
1237,
1222,
1168,
1193,
1121,
1118,
1122,
1126,
1131,
1174,
1186,
1154,
1171,
1236,
1154,
1147,
1163,
1172,
1176,
1146,
1172,
1208,
1251,
1245,
1194,
1236,
1191,
1208,
1197,
1198,
1198,
1187,
1194,
1215,
1118,
1166,
1182,
1217,
1122,
1197,
1150,
1141,
1093,
1141,
1065,
1112,
1130,
1120,
1091,
1151,
1174,
1110,
1109,
1078,
1131,
1109,
1069,
1012,
1073,
1083,
1075,
1061,
1015,
1065,
1056,
1063,
1038,
1032,
1048,
1113,
1006,
974,
1013,
1057,
1029,
972,
989,
1019,
1006,
980,
974,
1062,
982,
1044,
985,
957,
917,
933,
971,
984,
983,
989,
948,
995,
964,
971,
933,
1023,
946,
909,
966,
928,
967,
935,
971,
961,
1008,
1060,
1023,
1168,
1270,
1538,
2206,
3305,
5115,
7903,
11326,
16343,
21690,
26911,
31217,
33839,
34383,
32453,
28629,
23401,
18059,
13131,
8937,
6022,
3799,
2547,
1685,
1328,
993,
926,
876,
918,
889,
871,
901,
866,
852,
834,
894,
824,
811,
827,
859,
878,
816,
880,
879,
874,
1005,
969,
1111,
1303,
1623,
2075,
2537,
3222,
3727,
4396,
4828,
4963,
4923,
4670,
4080,
3542,
2840,
2216,
1729,
1271,
1025,
882,
756,
682,
658,
632,
604,
560,
608,
611,
599,
615,
572,
634,
596,
640,
616,
577,
658,
629,
640,
641,
601,
576,
584,
588,
529,
560,
549,
512,
602,
583,
539,
565,
557,
525,
573,
567,
513,
520,
497,
561,
487,
523,
521,
518,
545,
553,
528,
516,
557,
527,
528,
538,
558,
533,
505,
482,
531,
508,
522,
514,
522,
452,
569,
516,
496,
530,
496,
490,
501,
476,
524,
526,
485,
505,
481,
458,
440,
456,
486,
459,
450,
418,
462,
453,
471,
489,
425,
479,
469,
474,
476,
416,
423,
460,
431,
446,
429,
417,
416,
445,
439,
410,
407,
434,
422,
409,
440,
407,
408,
403,
392,
395,
421,
395,
382,
391,
399,
404,
385,
438,
414,
389,
387,
419,
382,
383,
373,
378,
393,
427,
384,
389,
404,
419,
375,
378,
399,
363,
368,
363,
357,
370,
362,
375,
368,
357,
372,
365,
372,
377,
359,
356,
368,
366,
342,
358,
365,
379,
355,
330,
351,
358,
356,
336,
382,
344,
327,
323,
336,
335,
327,
319,
336,
327,
343,
321,
354,
315,
306,
355,
314,
307,
316,
303,
322,
306,
296,
298,
327,
284,
303,
280,
304,
322,
290,
307,
306,
281,
262,
280,
286,
296,
291,
277,
279,
313,
266,
302,
283,
284,
241,
257,
249,
249,
268,
237,
277,
236,
240,
275,
289,
296,
235,
266,
268,
249,
249,
248,
235,
262,
233,
236,
255,
225,
245,
244,
210,
229,
234,
247,
273,
264,
224,
203,
232,
243,
239,
203,
246,
224,
236,
218,
220,
211,
221,
184,
215,
202,
227,
214,
221,
201,
210,
200,
207,
208,
206,
209,
182,
203,
195,
210,
203,
189,
219,
197,
209,
177,
185,
178,
184,
176,
194,
183,
169,
176,
180,
191,
176,
181,
169,
183,
181,
152,
196,
173,
179,
177,
179,
156,
169,
158,
163,
129,
139,
143,
148,
182,
142,
164,
150,
139,
169,
163,
137,
143,
159,
139,
157,
155,
140,
141,
146,
138,
148,
116,
135,
98,
145,
144,
126,
146,
157,
131,
117,
141,
108,
120,
127,
118,
124,
120,
124,
118,
114,
141,
134,
119,
114,
117,
114,
131,
108,
113,
133,
129,
117,
98,
104,
126,
99,
96,
109,
90,
97,
104,
101,
90,
98,
99,
93,
92,
96,
90,
91,
91,
92,
94,
90,
93,
87,
95,
93,
85,
80,
88,
83,
89,
89,
82,
82,
93,
76,
75,
70,
68,
78,
70,
80,
72,
73,
67,
66,
63,
63,
77,
68,
68,
56,
59,
63,
63,
58,
69,
49,
58,
64,
46,
66,
46,
58,
58,
56,
53,
67,
55,
57,
54,
55,
55,
55,
53,
46,
41,
43,
51,
52,
59,
39,
38,
53,
47,
47,
48,
50,
42,
35,
33,
37,
48,
42,
48,
46,
37,
42,
37,
40,
44,
33,
34,
27,
33,
20,
27,
22,
37,
28,
25,
30,
23,
15,
19,
24,
23,
26,
25,
21,
16,
21,
25,
21,
22,
19,
18,
12,
19,
11,
17,
11,
18,
16,
18,
16,
15,
12,
9,
10,
19,
2,
10,
13,
12,
5,
8,
11,
6,
9,
14,
8,
6,
9,
5,
4,
3,
11,
8,
3,
8,
5,
0,
0,
2,
1,
1,
0,
1,
2,
1,
0,
3,
1,
0,
1,
0,
0,
0,
0,
0,
0,
0,
0,
0,
0,
0,
0,
2,
0,
0,
0,
1,
0,
0,
0,
0,
1,
2,
2,
0,
0,
0,
0,
0,
0,
1,
0,
0,
0,
0,
0,
0,
0,
0,
0,
0,
3,
0,
0,
1,
0,
0,
0,
0,
2,
0,
0,
0,
0,
0,
3,
1,
0,
0,
1,
0,
0,
0,
0,
0,
0,
0,
0,
0,
0,
0,
1,
0,
0,
0,
0,
0,
0,
0,
0,
0,
0,
0,
1,
0,
0,
0,
0,
0,
0,
0,
1,
0,
0,
1,
0,
2,
1,
0,
1,
0,
1,
0,
0,
2,
1,
0,
0,
0,
1,
3,
0,
0,
0,
1,
0,
0,
0,
0,
1,
0,
0,
1,
0,
0,
0,
0,
0,
0,
2,
0,
0,
0,
1,
0,
1,
0,
0,
0,
0,
0,
1,
0,
0,
0,
1,
0,
0,
0,
0,
0,
0,
0,
0,
0,
0,
1,
0,
1,
0,
0,
0,
0,
0,
0,
0,
0,
0,
0,
0,
0,
0,
0,
0,
0,
0,
0,
2,
0,
0,
0,
0,
0,
0,
0,
0,
0,
0,
0,
0,
0,
0,
0,
1,
0,
0,
1,
0,
0,
0,
0,
0,
0,
0,
0,
0,
0,
0,
0,
0,
0,
0,
0,
0,
0,
0,
0,
0,
0,
0,
0,
0,
0,
0,
0,
0,
0,
0,
0,
0,
2,
0,
1,
0,
0,
0,
0,
0,
0,
0,
0,
0,
0,
0,
0,
0,
0,
0,
0,
0,
0,
2,
0,
0,
0,
1,
0,
1,
0,
1,
0,
0,
0,
0,
0,
0,
0,
0,
0,
0,
0,
1,
0,
0,
0,
1,
0,
1,
0,
0,
0,
0,
1,
0,
0,
0,
0,
0,
1,
0,
0,
0,
0,
2,
0,
0,
1,
0,
0,
0,
0,
0,
0,
0,
0,
1,
0,
0,
0,
0,
0,
0,
0,
1,
0,
0,
0,
0,
0,
0,
#ENDOFDATA   :