File: NeXLSpectrum/Pyrite fragments/Pyrite_1_E3_15kV10nA130kHz_95kHz_100s.msa
#FORMAT      : EMSA/MAS Spectral Data File
#VERSION     : 1.0
#TITLE       : Bruker Nano spectrum Acquisition
#DATE        : 23-AUG-2019
#TIME        : 11:11
#OWNER       : Bruker Nano
#NPOINTS     : 4096
#NCOLUMNS    : 1
#XUNITS      : eV
#YUNITS      : counts
#DATATYPE    : Y
#XPERCHAN    : 5.00257
#OFFSET      : -482.8305
#BEAMKV      : 15
#SIGNALTYPE  : EDS
#ELEVANGLE   : 40
#AZIMANGLE   : 45
#LIVETIME    : 100
#REALTIME    : 121.782
#PROBECUR    : 10
#TAUWIND     : 0
#TDEADLYR    : 0
#TACTLYR     : 0.045
#TALWIND     : 0.004
#CHOFFSET    : 0.0
#XLABEL      : Energy (eV)
#YLABEL      : Counts
#EDSDET      : SDUTW
##DET_HASH   : c6370f9e-cc72-7559-f57e-203d75c8942b
##CALIB_HASH : fcf71094-1a10-2882-685e-00197fff5925
##SAMPLE     : <BulkSample id="1">\n<mOrientation id="2">\n<double>0.0</double>\n<double>0.0</double>\n<double>-1.0</double>\n</mOrientation>\n</BulkSample>
#SPECTRUM    :
0,
0,
0,
0,
0,
0,
0,
0,
0,
0,
0,
0,
0,
0,
0,
0,
0,
0,
4,
14,
21,
14,
26,
35,
27,
30,
39,
217,
2457,
18503,
75446,
168654,
204795,
135102,
48847,
9658,
1250,
148,
47,
28,
115,
1238,
1424,
1215,
876,
666,
819,
1601,
3672,
7362,
10472,
9848,
6446,
2899,
1159,
793,
987,
1343,
1497,
1498,
1183,
1053,
1226,
1829,
3341,
6141,
9019,
10316,
8490,
5741,
4292,
4235,
5353,
6324,
6206,
6313,
8763,
15341,
22953,
27055,
23708,
16011,
8524,
4277,
2593,
2124,
1982,
1853,
1792,
1803,
1765,
1803,
1802,
1823,
1908,
1957,
1922,
1965,
1929,
2014,
2072,
2105,
2113,
2183,
2193,
2179,
2298,
2329,
2394,
2308,
2383,
2474,
2476,
2585,
2497,
2525,
2644,
2719,
2688,
2767,
2819,
2715,
2758,
2852,
2861,
2951,
2933,
2950,
3050,
3087,
3099,
3175,
3076,
3066,
3024,
3190,
3108,
3087,
3016,
3110,
3025,
3068,
2907,
3098,
3039,
3214,
3204,
3257,
3273,
3295,
3305,
3318,
3327,
3213,
3235,
3284,
3312,
3256,
3130,
3334,
3392,
3377,
3306,
3430,
3498,
3461,
3435,
3618,
3563,
3679,
3591,
3646,
3478,
3465,
3561,
3543,
3779,
4300,
5504,
8906,
16728,
33590,
64014,
108319,
161870,
207420,
226738,
211236,
168216,
114163,
67438,
36308,
19952,
14534,
14458,
16402,
17795,
17626,
15157,
11730,
8330,
5596,
3784,
2776,
2251,
2069,
1934,
1861,
1823,
1830,
1825,
1837,
1811,
1806,
1791,
1812,
1818,
1827,
1844,
1859,
1804,
1802,
1856,
1846,
1807,
1816,
1805,
1784,
1836,
1844,
1855,
1813,
1868,
1773,
1820,
1810,
1780,
1798,
1805,
1776,
1727,
1802,
1803,
1788,
1765,
1726,
1757,
1721,
1718,
1834,
1777,
1748,
1734,
1712,
1717,
1701,
1779,
1704,
1754,
1674,
1740,
1691,
1692,
1687,
1710,
1700,
1660,
1700,
1684,
1682,
1650,
1665,
1695,
1668,
1709,
1676,
1629,
1686,
1661,
1679,
1639,
1603,
1651,
1608,
1547,
1510,
1660,
1568,
1551,
1601,
1541,
1563,
1492,
1538,
1585,
1568,
1566,
1530,
1570,
1583,
1515,
1446,
1518,
1498,
1514,
1399,
1516,
1476,
1477,
1469,
1493,
1476,
1446,
1464,
1453,
1464,
1440,
1444,
1435,
1400,
1451,
1421,
1421,
1382,
1435,
1346,
1410,
1408,
1382,
1393,
1356,
1354,
1414,
1311,
1319,
1306,
1262,
1278,
1215,
1179,
1158,
1182,
1184,
1159,
1129,
1147,
1169,
1198,
1220,
1201,
1229,
1203,
1205,
1205,
1221,
1224,
1207,
1270,
1234,
1241,
1232,
1217,
1169,
1170,
1190,
1215,
1255,
1232,
1218,
1185,
1138,
1216,
1170,
1102,
1177,
1176,
1166,
1206,
1142,
1111,
1125,
1141,
1127,
1108,
1142,
1107,
1175,
1057,
1067,
1139,
1133,
1130,
1050,
1101,
1085,
1103,
1093,
1091,
1135,
1040,
1053,
1095,
1045,
1056,
1057,
1031,
1063,
1064,
1062,
1020,
1055,
1030,
1066,
1015,
1017,
1037,
986,
943,
1016,
1008,
990,
1000,
954,
975,
992,
912,
989,
959,
952,
1017,
927,
942,
1004,
1013,
979,
973,
957,
997,
982,
978,
962,
992,
990,
1007,
1040,
1055,
1057,
1298,
1518,
2278,
3319,
4886,
7744,
11246,
15995,
21374,
26786,
30513,
33970,
34055,
32473,
28049,
23485,
18001,
12916,
8854,
5874,
3708,
2480,
1698,
1165,
1042,
969,
893,
851,
871,
789,
800,
877,
829,
821,
819,
803,
806,
809,
784,
780,
823,
837,
908,
895,
930,
990,
1120,
1375,
1517,
2023,
2484,
2983,
3706,
4271,
4725,
4827,
4799,
4476,
3971,
3406,
2793,
2199,
1733,
1342,
1070,
912,
754,
707,
621,
638,
572,
618,
597,
622,
586,
600,
584,
612,
569,
618,
604,
622,
606,
604,
625,
602,
608,
606,
640,
624,
536,
583,
551,
521,
550,
561,
567,
592,
566,
547,
518,
561,
529,
523,
576,
525,
545,
504,
557,
527,
512,
518,
501,
523,
525,
549,
531,
543,
572,
501,
521,
528,
560,
556,
547,
531,
495,
524,
533,
503,
480,
507,
477,
492,
520,
485,
477,
505,
494,
487,
440,
441,
478,
480,
464,
483,
454,
460,
464,
465,
435,
457,
466,
421,
465,
446,
485,
431,
398,
407,
400,
401,
400,
412,
409,
397,
410,
417,
417,
423,
394,
404,
426,
418,
406,
416,
436,
417,
420,
408,
432,
435,
396,
407,
385,
428,
392,
394,
380,
411,
427,
345,
363,
362,
390,
428,
392,
393,
344,
378,
353,
348,
391,
371,
376,
353,
377,
360,
385,
378,
343,
350,
356,
369,
363,
356,
345,
337,
344,
363,
344,
336,
323,
351,
344,
343,
300,
354,
337,
319,
311,
352,
374,
324,
313,
334,
318,
347,
307,
328,
334,
287,
303,
294,
322,
311,
311,
301,
285,
309,
319,
308,
282,
332,
292,
292,
310,
300,
296,
293,
280,
283,
313,
296,
298,
303,
304,
278,
273,
289,
279,
277,
273,
261,
288,
265,
295,
265,
276,
249,
273,
275,
257,
255,
275,
240,
245,
268,
278,
226,
256,
249,
263,
249,
249,
253,
248,
221,
218,
261,
259,
264,
274,
244,
240,
238,
233,
233,
228,
240,
227,
234,
230,
220,
209,
211,
213,
239,
232,
205,
221,
222,
196,
213,
212,
217,
204,
192,
216,
231,
246,
232,
198,
191,
208,
205,
190,
205,
224,
216,
197,
194,
176,
167,
171,
188,
182,
179,
178,
167,
179,
174,
161,
174,
171,
175,
177,
169,
189,
175,
180,
147,
196,
166,
178,
170,
171,
153,
162,
154,
141,
180,
159,
145,
160,
139,
176,
164,
157,
131,
146,
133,
179,
134,
135,
130,
131,
146,
151,
166,
135,
141,
137,
124,
138,
114,
130,
141,
128,
137,
98,
135,
130,
124,
134,
118,
145,
132,
121,
117,
110,
136,
116,
111,
126,
127,
103,
109,
114,
131,
96,
117,
119,
80,
108,
132,
116,
117,
119,
112,
90,
91,
82,
115,
84,
86,
97,
86,
90,
89,
101,
90,
85,
82,
90,
89,
86,
82,
86,
82,
85,
84,
75,
78,
79,
84,
85,
79,
76,
81,
74,
71,
76,
75,
72,
76,
84,
73,
76,
77,
78,
72,
72,
75,
70,
85,
73,
59,
49,
65,
71,
40,
63,
62,
64,
51,
61,
58,
47,
51,
61,
64,
55,
51,
42,
54,
42,
53,
44,
51,
55,
39,
42,
47,
41,
48,
53,
36,
49,
34,
47,
43,
50,
32,
39,
43,
38,
40,
23,
33,
35,
32,
33,
24,
31,
23,
35,
32,
32,
28,
24,
24,
34,
27,
26,
27,
21,
33,
21,
28,
33,
25,
21,
24,
20,
32,
20,
29,
15,
12,
28,
13,
20,
8,
13,
14,
19,
13,
12,
15,
12,
9,
21,
12,
6,
8,
12,
9,
9,
9,
11,
2,
12,
7,
4,
8,
8,
1,
7,
6,
3,
6,
7,
2,
2,
0,
0,
0,
5,
0,
0,
0,
0,
0,
0,
1,
0,
1,
0,
0,
0,
0,
0,
0,
0,
0,
0,
0,
0,
0,
0,
0,
0,
0,
0,
0,
0,
0,
0,
0,
0,
0,
0,
0,
0,
0,
0,
0,
0,
0,
3,
0,
0,
0,
0,
0,
0,
0,
1,
0,
0,
0,
1,
0,
0,
0,
0,
0,
0,
0,
0,
0,
0,
2,
0,
0,
0,
0,
0,
0,
0,
0,
1,
0,
0,
2,
0,
0,
0,
0,
1,
0,
0,
0,
1,
0,
1,
0,
0,
0,
0,
0,
0,
0,
0,
0,
0,
0,
0,
0,
0,
0,
0,
0,
0,
0,
0,
0,
1,
0,
3,
0,
0,
0,
0,
0,
2,
0,
0,
0,
1,
0,
0,
0,
0,
0,
1,
0,
0,
0,
2,
0,
0,
0,
1,
0,
0,
0,
0,
0,
0,
0,
0,
0,
0,
0,
0,
0,
1,
2,
0,
0,
0,
0,
0,
0,
0,
0,
0,
0,
0,
0,
0,
0,
1,
0,
0,
0,
0,
0,
0,
0,
0,
0,
0,
0,
0,
0,
0,
0,
0,
0,
0,
1,
0,
0,
0,
0,
0,
0,
0,
0,
0,
0,
0,
0,
0,
0,
0,
0,
0,
0,
0,
0,
0,
1,
0,
2,
2,
0,
0,
1,
0,
0,
0,
0,
1,
0,
0,
0,
0,
0,
0,
0,
0,
0,
0,
0,
0,
0,
0,
0,
0,
0,
0,
0,
0,
0,
0,
0,
0,
0,
0,
0,
0,
0,
0,
0,
0,
0,
0,
0,
0,
0,
0,
1,
0,
0,
0,
0,
0,
0,
0,
0,
0,
1,
1,
0,
0,
0,
0,
0,
0,
1,
0,
0,
1,
0,
0,
0,
1,
0,
1,
0,
0,
0,
0,
0,
1,
0,
0,
0,
0,
0,
0,
0,
0,
0,
0,
0,
0,
0,
0,
0,
0,
0,
0,
0,
0,
0,
0,
0,
1,
0,
0,
0,
0,
0,
0,
0,
0,
1,
0,
0,
0,
0,
1,
0,
0,
#ENDOFDATA   :